Timestamp,accelX(g),accelY(g),accelZ(g),accelUserX(g),accelUserY(g),accelUserZ(g),Roll(rads),Pitch(rads),Yaw(rads)
04-May-2019 21:34:10.860, 0.0127,-1.0206, 0.0334, 0.0080,-0.0033, 0.0242, 2.6877, 1.5517,-0.9927
04-May-2019 21:34:10.879, 0.0074,-1.0047, 0.0086, 0.0028,-0.0191, 0.0013, 2.6722, 1.5552,-0.9781
04-May-2019 21:34:10.899, 0.0082,-0.9977, 0.0106, 0.0026, 0.0036,-0.0076, 2.6568, 1.5580,-0.9635
04-May-2019 21:34:10.919, 0.0081,-1.0039, 0.0049, 0.0029,-0.0022,-0.0027, 2.6494, 1.5603,-0.9567
04-May-2019 21:34:10.938, 0.0012,-0.9975, 0.0036, 0.0033, 0.0053,-0.0075, 2.6555, 1.5618,-0.9631
04-May-2019 21:34:10.957, 0.0004,-0.9984,-0.0058, 0.0044, 0.0009,-0.0228, 2.6626, 1.5634,-0.9706
04-May-2019 21:34:10.977, 0.0038,-0.9852,-0.0001,-0.0012, 0.0102,-0.0118, 2.6646, 1.5643,-0.9729
04-May-2019 21:34:10.996, 0.0053,-1.0050, 0.0019,-0.0035, 0.0027,-0.0018, 2.6508, 1.5646,-0.9592
04-May-2019 21:34:11.016, 0.0037,-0.9833, 0.0036, 0.0029, 0.0048,-0.0029, 2.6197, 1.5644,-0.9281
04-May-2019 21:34:11.035, 0.0046,-1.0149, 0.0018,-0.0018,-0.0054,-0.0029, 2.5564, 1.5636,-0.8644
04-May-2019 21:34:11.055, 0.0096,-0.9979, 0.0138, 0.0027,-0.0047,-0.0028, 2.4808, 1.5622,-0.7882
04-May-2019 21:34:11.074, 0.0165,-1.0099, 0.0299, 0.0087,-0.0078, 0.0130, 2.4329, 1.5604,-0.7396
04-May-2019 21:34:11.093, 0.0132,-1.0046, 0.0201, 0.0070,-0.0086, 0.0176, 2.3993, 1.5592,-0.7053
04-May-2019 21:34:11.113, 0.0115,-1.0157, 0.0188, 0.0057,-0.0139, 0.0070, 2.3835, 1.5588,-0.6892
04-May-2019 21:34:11.133, 0.0098,-0.9938, 0.0196, 0.0019,-0.0047, 0.0128, 2.3680, 1.5588,-0.6735
04-May-2019 21:34:11.152, 0.0097,-1.0028, 0.0192, 0.0016, 0.0063, 0.0128, 2.3542, 1.5595,-0.6599
04-May-2019 21:34:11.171, 0.0098,-1.0016, 0.0058, 0.0013,-0.0107, 0.0058, 2.3315, 1.5606,-0.6376
04-May-2019 21:34:11.191, 0.0094,-1.0137, 0.0019, 0.0014, 0.0064, 0.0098, 2.2892, 1.5619,-0.5958
04-May-2019 21:34:11.210, 0.0055,-0.9772,-0.0121, 0.0019,-0.0088,-0.0101, 2.2365, 1.5631,-0.5434
04-May-2019 21:34:11.230, 0.0059,-1.0038,-0.0082,-0.0021, 0.0293,-0.0127, 2.2412, 1.5632,-0.5482
04-May-2019 21:34:11.249, 0.0113,-1.0149,-0.0103, 0.0028,-0.0237,-0.0121, 2.2672, 1.5624,-0.5740
04-May-2019 21:34:11.269, 0.0113,-0.9924, 0.0160, 0.0023, 0.0140,-0.0025, 2.3145, 1.5611,-0.6209
04-May-2019 21:34:11.288, 0.0132,-1.0054, 0.0186, 0.0029,-0.0018, 0.0156, 2.3409, 1.5599,-0.6470
04-May-2019 21:34:11.308, 0.0108,-1.0077, 0.0213, 0.0025, 0.0004, 0.0114, 2.3598, 1.5586,-0.6652
04-May-2019 21:34:11.327, 0.0091,-1.0021, 0.0200, 0.0007,-0.0136, 0.0097, 2.3545, 1.5579,-0.6596
04-May-2019 21:34:11.347, 0.0096,-0.9920, 0.0204, 0.0001, 0.0105, 0.0124, 2.3330, 1.5579,-0.6378
04-May-2019 21:34:11.366, 0.0112,-1.0132, 0.0127, 0.0000,-0.0117, 0.0069, 2.3124, 1.5581,-0.6172
04-May-2019 21:34:11.386, 0.0076,-1.0020, 0.0107, 0.0016, 0.0021, 0.0122, 2.3016, 1.5586,-0.6064
04-May-2019 21:34:11.405, 0.0092,-1.0074, 0.0210, 0.0003,-0.0105, 0.0115, 2.2771, 1.5593,-0.5821
04-May-2019 21:34:11.425, 0.0064,-0.9897, 0.0135, 0.0031, 0.0087, 0.0110, 2.2370, 1.5604,-0.5427
04-May-2019 21:34:11.444, 0.0084,-1.0139, 0.0090, 0.0012,-0.0037, 0.0044, 2.1832, 1.5613,-0.4899
04-May-2019 21:34:11.463, 0.0099,-0.9944, 0.0045, 0.0010,-0.0078, 0.0009, 2.1285, 1.5620,-0.4360
04-May-2019 21:34:11.483, 0.0129,-1.0059, 0.0154, 0.0043, 0.0032, 0.0105, 2.0423, 1.5629,-0.3505
04-May-2019 21:34:11.502, 0.0099,-1.0022, 0.0101, 0.0038,-0.0118, 0.0067, 1.9250, 1.5637,-0.2338
04-May-2019 21:34:11.522, 0.0083,-1.0032, 0.0075, 0.0027, 0.0010, 0.0054, 1.7821, 1.5644,-0.0911
04-May-2019 21:34:11.541, 0.0096,-1.0034, 0.0173, 0.0029,-0.0023, 0.0094, 1.5848, 1.5648, 0.1061
04-May-2019 21:34:11.561, 0.0100,-0.9983, 0.0238, 0.0041, 0.0009, 0.0219, 1.2970, 1.5648, 0.3939
04-May-2019 21:34:11.580, 0.0096,-1.0071, 0.0168, 0.0044,-0.0048, 0.0229, 0.9555, 1.5638, 0.7355
04-May-2019 21:34:11.600, 0.0091,-0.9975, 0.0100, 0.0035,-0.0060, 0.0148, 0.6711, 1.5615, 1.0199
04-May-2019 21:34:11.619, 0.0091,-0.9935, 0.0148, 0.0031, 0.0086, 0.0238, 0.4685, 1.5580, 1.2225
04-May-2019 21:34:11.639, 0.0089,-0.9991, 0.0067, 0.0035, 0.0045, 0.0309, 0.3231, 1.5529, 1.3679
04-May-2019 21:34:11.658, 0.0081,-0.9963,-0.0030, 0.0026, 0.0013, 0.0239, 0.2424, 1.5481, 1.4486
04-May-2019 21:34:11.677, 0.0025,-0.9955,-0.0118,-0.0005, 0.0060, 0.0279, 0.1665, 1.5401, 1.5241
04-May-2019 21:34:11.697,-0.0096,-0.9893,-0.0434,-0.0146, 0.0122, 0.0162, 0.1259, 1.5309, 1.5645
04-May-2019 21:34:11.716,-0.0025,-0.9954,-0.0425,-0.0199, 0.0089,-0.0047, 0.1192, 1.5217, 1.5714
04-May-2019 21:34:11.736, 0.0103,-1.0050, 0.0125, 0.0038,-0.0066, 0.0398, 0.1247, 1.5121, 1.5667
04-May-2019 21:34:11.755, 0.0300,-1.0023,-0.0353, 0.0150,-0.0118, 0.1566, 0.1201, 1.5003, 1.5756
04-May-2019 21:34:11.775, 0.0069,-0.9883,-0.0095, 0.0039,-0.0015, 0.0850, 0.1034, 1.4849, 1.5974
04-May-2019 21:34:11.794, 0.0298,-1.0012,-0.0778, 0.0079,-0.0017, 0.0649, 0.0941, 1.4667, 1.6138
04-May-2019 21:34:11.814, 0.0171,-0.9915,-0.1215, 0.0127,-0.0032, 0.0285, 0.0862, 1.4518, 1.6268
04-May-2019 21:34:11.833, 0.0063,-0.9787,-0.1726, 0.0005, 0.0043,-0.0182, 0.0760, 1.4315, 1.6421
04-May-2019 21:34:11.854, 0.0062,-0.9802,-0.1564,-0.0050, 0.0063, 0.0067, 0.0683, 1.4066, 1.6511
04-May-2019 21:34:11.872, 0.0070,-0.9720,-0.1703,-0.0071, 0.0133, 0.0201, 0.0679, 1.3916, 1.6511
04-May-2019 21:34:11.891, 0.0137,-0.9623,-0.1813,-0.0084, 0.0093, 0.0170, 0.0704, 1.3711, 1.6472
04-May-2019 21:34:11.911, 0.0222,-0.9706,-0.1752,-0.0004, 0.0279,-0.0003, 0.0689, 1.3496, 1.6436
04-May-2019 21:34:11.931, 0.0200,-0.9444,-0.2159, 0.0153,-0.0273, 0.0593, 0.0622, 1.3255, 1.6454
04-May-2019 21:34:11.950, 0.0333,-0.9700,-0.2231, 0.0025, 0.0298, 0.0314, 0.0522, 1.2996, 1.6504
04-May-2019 21:34:11.969, 0.0043,-0.9577,-0.3091,-0.0043,-0.0190, 0.0300, 0.0426, 1.2733, 1.6572
04-May-2019 21:34:11.989, 0.0059,-0.9358,-0.3159,-0.0093, 0.0198,-0.0019, 0.0366, 1.2476, 1.6618
04-May-2019 21:34:12.008, 0.0184,-0.9441,-0.2979,-0.0055,-0.0094, 0.0019, 0.0334, 1.2287, 1.6636
04-May-2019 21:34:12.028, 0.0086,-0.9243,-0.3047, 0.0032, 0.0072, 0.0507, 0.0304, 1.2033, 1.6666
04-May-2019 21:34:12.048, 0.0145,-0.9168,-0.3680,-0.0013,-0.0019, 0.0461, 0.0282, 1.1763, 1.6700
04-May-2019 21:34:12.067, 0.0159,-0.8988,-0.3855, 0.0016,-0.0037, 0.0385, 0.0263, 1.1480, 1.6734
04-May-2019 21:34:12.086, 0.0076,-0.8940,-0.4188, 0.0016, 0.0047, 0.0154, 0.0250, 1.1192, 1.6769
04-May-2019 21:34:12.106, 0.0098,-0.8661,-0.4679,-0.0005, 0.0102, 0.0153, 0.0249, 1.0902, 1.6798
04-May-2019 21:34:12.125, 0.0095,-0.8590,-0.4773,-0.0044, 0.0033, 0.0017, 0.0247, 1.0611, 1.6819
04-May-2019 21:34:12.144, 0.0215,-0.8359,-0.4798,-0.0015, 0.0126, 0.0430, 0.0245, 1.0310, 1.6834
04-May-2019 21:34:12.165, 0.0128,-0.8297,-0.5284, 0.0087, 0.0157, 0.0394, 0.0242, 0.9997, 1.6851
04-May-2019 21:34:12.185, 0.0121,-0.7892,-0.5465, 0.0006, 0.0025, 0.0120, 0.0240, 0.9677, 1.6869
04-May-2019 21:34:12.203, 0.0108,-0.7804,-0.5723, 0.0002, 0.0244, 0.0295, 0.0235, 0.9431, 1.6883
04-May-2019 21:34:12.223, 0.0152,-0.7657,-0.5937,-0.0003, 0.0207, 0.0296, 0.0224, 0.9092, 1.6904
04-May-2019 21:34:12.242, 0.0108,-0.7446,-0.6279,-0.0001, 0.0096, 0.0371, 0.0211, 0.8744, 1.6931
04-May-2019 21:34:12.262, 0.0052,-0.7224,-0.6946,-0.0067, 0.0048, 0.0056, 0.0204, 0.8392, 1.6961
04-May-2019 21:34:12.281, 0.0052,-0.7070,-0.7184,-0.0112, 0.0167,-0.0170, 0.0201, 0.8049, 1.6983
04-May-2019 21:34:12.300, 0.0101,-0.6852,-0.6950,-0.0080,-0.0043, 0.0047, 0.0197, 0.7714, 1.6993
04-May-2019 21:34:12.320, 0.0061,-0.6647,-0.7260,-0.0045, 0.0013, 0.0380, 0.0196, 0.7373, 1.7000
04-May-2019 21:34:12.339, 0.0242,-0.6486,-0.7954,-0.0100, 0.0019,-0.0016, 0.0202, 0.7026, 1.7002
04-May-2019 21:34:12.360, 0.0157,-0.6124,-0.7916,-0.0029,-0.0069,-0.0092, 0.0202, 0.6687, 1.7006
04-May-2019 21:34:12.378, 0.0071,-0.5967,-0.8008, 0.0180,-0.0191,-0.0063, 0.0199, 0.6438, 1.7010
04-May-2019 21:34:12.398, 0.0200,-0.5625,-0.8337,-0.0023, 0.0008, 0.0010, 0.0194, 0.6105, 1.7018
04-May-2019 21:34:12.417, 0.0157,-0.5249,-0.8437,-0.0014, 0.0022, 0.0062, 0.0189, 0.5776, 1.7026
04-May-2019 21:34:12.437, 0.0047,-0.4866,-0.9002, 0.0030, 0.0065,-0.0176, 0.0183, 0.5452, 1.7039
04-May-2019 21:34:12.456, 0.0073,-0.4674,-0.9050,-0.0114, 0.0208,-0.0359, 0.0179, 0.5151, 1.7048
04-May-2019 21:34:12.476, 0.0066,-0.4435,-0.8830,-0.0080, 0.0095,-0.0144, 0.0175, 0.4869, 1.7053
04-May-2019 21:34:12.495, 0.0084,-0.4249,-0.9014,-0.0068, 0.0070, 0.0142, 0.0172, 0.4594, 1.7057
04-May-2019 21:34:12.515, 0.0105,-0.4045,-0.9428,-0.0073, 0.0078,-0.0174, 0.0170, 0.4325, 1.7062
04-May-2019 21:34:12.535, 0.0166,-0.3891,-0.9500,-0.0029, 0.0028,-0.0391, 0.0168, 0.4078, 1.7067
04-May-2019 21:34:12.554, 0.0140,-0.3685,-0.9265, 0.0095,-0.0041,-0.0075, 0.0166, 0.3906, 1.7073
04-May-2019 21:34:12.573, 0.0124,-0.3520,-0.9241,-0.0044, 0.0033, 0.0037, 0.0165, 0.3680, 1.7085
04-May-2019 21:34:12.592, 0.0129,-0.3340,-0.9181, 0.0023,-0.0077, 0.0256, 0.0164, 0.3450, 1.7097
04-May-2019 21:34:12.612, 0.0097,-0.3133,-0.9484,-0.0086,-0.0072, 0.0201, 0.0164, 0.3207, 1.7106
04-May-2019 21:34:12.632, 0.0130,-0.2926,-0.9616,-0.0018,-0.0137,-0.0022, 0.0164, 0.2956, 1.7111
04-May-2019 21:34:12.651, 0.0163,-0.2672,-0.9548,-0.0013,-0.0146, 0.0064, 0.0162, 0.2704, 1.7115
04-May-2019 21:34:12.670, 0.0278,-0.2389,-0.9372, 0.0103,-0.0117, 0.0234, 0.0161, 0.2446, 1.7123
04-May-2019 21:34:12.690,-0.0005,-0.2015,-0.9995,-0.0046,-0.0068, 0.0175, 0.0159, 0.2174, 1.7140
04-May-2019 21:34:12.709, 0.0073,-0.1708,-1.0547,-0.0241, 0.0084,-0.0544, 0.0157, 0.1915, 1.7148
04-May-2019 21:34:12.729, 0.0168,-0.1601,-1.0648, 0.0020, 0.0088,-0.0792, 0.0150, 0.1697, 1.7152
04-May-2019 21:34:12.749, 0.0328,-0.1150,-1.0086, 0.0217, 0.0354,-0.0200, 0.0112, 0.1509, 1.7165
04-May-2019 21:34:12.767, 0.0103,-0.0940,-0.9666, 0.0219, 0.0656, 0.0139, 0.0070, 0.1367, 1.7185
04-May-2019 21:34:12.787, 0.0058,-0.0853,-0.9838, 0.0218, 0.0312, 0.0159, 0.0014, 0.1169, 1.7217
04-May-2019 21:34:12.806, 0.0010,-0.0884,-1.0129, 0.0093, 0.0316, 0.0089,-0.0040, 0.0964, 1.7250
04-May-2019 21:34:12.826,-0.0256,-0.0824,-1.0016,-0.0069, 0.0091,-0.0119,-0.0104, 0.0754, 1.7282
04-May-2019 21:34:12.845,-0.0590,-0.0378,-1.1088,-0.0134,-0.0600,-0.0201,-0.0170, 0.0545, 1.7303
04-May-2019 21:34:12.867, 0.0063,-0.0930,-1.1022,-0.0578,-0.0529,-0.2454,-0.0173, 0.0449, 1.7303
04-May-2019 21:34:12.885,-0.0413,-0.0468,-1.0073, 0.0022, 0.0075, 0.0334,-0.0159, 0.0430, 1.7303
04-May-2019 21:34:12.906, 0.0023,-0.0504,-1.0227, 0.0022,-0.0209,-0.0320,-0.0146, 0.0410, 1.7296
04-May-2019 21:34:12.923,-0.0054,-0.0446,-0.9986, 0.0025, 0.0021,-0.0071,-0.0140, 0.0402, 1.7293
04-May-2019 21:34:12.942,-0.0135,-0.0383,-1.0043, 0.0087,-0.0069, 0.0009,-0.0137, 0.0388, 1.7289
04-May-2019 21:34:12.962,-0.0083,-0.0409,-1.0050, 0.0024,-0.0009,-0.0094,-0.0139, 0.0371, 1.7285
04-May-2019 21:34:12.982,-0.0089,-0.0397,-0.9977,-0.0034, 0.0011,-0.0029,-0.0142, 0.0355, 1.7280
04-May-2019 21:34:13.002,-0.0099,-0.0359,-1.0042, 0.0088,-0.0065,-0.0001,-0.0143, 0.0341, 1.7274
04-May-2019 21:34:13.021,-0.0002,-0.0387,-0.9928, 0.0120,-0.0063,-0.0063,-0.0140, 0.0333, 1.7270
04-May-2019 21:34:13.040, 0.0011,-0.0366,-1.0026, 0.0148,-0.0031,-0.0002,-0.0134, 0.0329, 1.7272
04-May-2019 21:34:13.059,-0.0027,-0.0312,-1.0071, 0.0098, 0.0000,-0.0045,-0.0128, 0.0327, 1.7276
04-May-2019 21:34:13.079, 0.0010,-0.0353,-1.0061, 0.0112, 0.0013,-0.0043,-0.0121, 0.0331, 1.7280
04-May-2019 21:34:13.099, 0.0003,-0.0337,-1.0091, 0.0113, 0.0005,-0.0097,-0.0111, 0.0342, 1.7283
04-May-2019 21:34:13.118,-0.0035,-0.0345,-1.0039, 0.0114,-0.0017,-0.0064,-0.0101, 0.0356, 1.7285
04-May-2019 21:34:13.137,-0.0101,-0.0324,-0.9944, 0.0035, 0.0035, 0.0036,-0.0085, 0.0378, 1.7285
04-May-2019 21:34:13.157,-0.0017,-0.0407,-0.9989,-0.0001, 0.0025, 0.0039,-0.0070, 0.0398, 1.7280
04-May-2019 21:34:13.176, 0.0026,-0.0485,-1.0081, 0.0037,-0.0015,-0.0053,-0.0053, 0.0419, 1.7277
04-May-2019 21:34:13.196,-0.0102,-0.0456,-1.0224, 0.0049,-0.0095,-0.0231,-0.0031, 0.0448, 1.7278
04-May-2019 21:34:13.215,-0.0075,-0.0528,-1.0007,-0.0123, 0.0036,-0.0024, 0.0007, 0.0498, 1.7280
04-May-2019 21:34:13.235, 0.0090,-0.0688,-1.0235,-0.0021,-0.0064,-0.0267, 0.0059, 0.0567, 1.7281
04-May-2019 21:34:13.254, 0.0102,-0.0717,-1.0413,-0.0033,-0.0049,-0.0118, 0.0113, 0.0642, 1.7287
04-May-2019 21:34:13.274, 0.0324,-0.0866,-1.0238, 0.0031,-0.0103,-0.0112, 0.0138, 0.0692, 1.7291
04-May-2019 21:34:13.293, 0.0019,-0.0664,-1.0472,-0.0060, 0.0039,-0.0400, 0.0155, 0.0761, 1.7301
04-May-2019 21:34:13.312, 0.0195,-0.0790,-1.0623, 0.0056, 0.0079,-0.0621, 0.0161, 0.0851, 1.7302
04-May-2019 21:34:13.332, 0.0141,-0.0908,-1.0604, 0.0041, 0.0113,-0.0674, 0.0165, 0.0976, 1.7302
04-May-2019 21:34:13.351, 0.0156,-0.1088,-1.0396,-0.0060, 0.0141,-0.0504, 0.0167, 0.1138, 1.7298
04-May-2019 21:34:13.371, 0.0097,-0.1203,-1.0212,-0.0046, 0.0179,-0.0397, 0.0168, 0.1331, 1.7292
04-May-2019 21:34:13.391, 0.0089,-0.1349,-0.9935,-0.0076, 0.0300,-0.0200, 0.0168, 0.1544, 1.7284
04-May-2019 21:34:13.410, 0.0068,-0.1563,-0.9762,-0.0085, 0.0309,-0.0006, 0.0169, 0.1767, 1.7278
04-May-2019 21:34:13.430, 0.0050,-0.1745,-0.9860,-0.0101, 0.0331,-0.0019, 0.0169, 0.1995, 1.7273
04-May-2019 21:34:13.449, 0.0063,-0.2061,-0.9949,-0.0117, 0.0321,-0.0150, 0.0170, 0.2234, 1.7270
04-May-2019 21:34:13.468, 0.0090,-0.2361,-1.0047,-0.0087, 0.0183,-0.0269, 0.0170, 0.2422, 1.7267
04-May-2019 21:34:13.487, 0.0172,-0.2691,-1.0054,-0.0025, 0.0125,-0.0439, 0.0170, 0.2693, 1.7265
04-May-2019 21:34:13.507, 0.0192,-0.2990,-0.9949, 0.0022, 0.0110,-0.0436, 0.0170, 0.2985, 1.7265
04-May-2019 21:34:13.526, 0.0186,-0.3271,-0.9784, 0.0047, 0.0097,-0.0377, 0.0169, 0.3295, 1.7263
04-May-2019 21:34:13.546, 0.0119,-0.3461,-0.9691, 0.0032, 0.0149,-0.0401, 0.0168, 0.3623, 1.7259
04-May-2019 21:34:13.566, 0.0043,-0.3592,-0.9803,-0.0099, 0.0342,-0.0564, 0.0164, 0.3969, 1.7246
04-May-2019 21:34:13.585, 0.0141,-0.4013,-0.9382,-0.0120, 0.0467,-0.0483, 0.0166, 0.4340, 1.7215
04-May-2019 21:34:13.605, 0.0136,-0.4319,-0.9139,-0.0026, 0.0419,-0.0301, 0.0171, 0.4730, 1.7177
04-May-2019 21:34:13.625, 0.0078,-0.4668,-0.8673,-0.0040, 0.0437,-0.0141, 0.0174, 0.5130, 1.7139
04-May-2019 21:34:13.643, 0.0063,-0.4889,-0.8518,-0.0076, 0.0396,-0.0043, 0.0177, 0.5434, 1.7110
04-May-2019 21:34:13.663, 0.0081,-0.5295,-0.8182,-0.0119, 0.0470, 0.0031, 0.0185, 0.5842, 1.7070
04-May-2019 21:34:13.682, 0.0071,-0.5588,-0.7901,-0.0104, 0.0496,-0.0108, 0.0193, 0.6250, 1.7030
04-May-2019 21:34:13.702, 0.0098,-0.6007,-0.7663, 0.0170, 0.0247,-0.0078, 0.0207, 0.6656, 1.6993
04-May-2019 21:34:13.721, 0.0250,-0.6324,-0.7355,-0.0106, 0.0261, 0.0135, 0.0220, 0.7057, 1.6962
04-May-2019 21:34:13.740, 0.0269,-0.6691,-0.7110, 0.0188, 0.0170, 0.0195, 0.0231, 0.7441, 1.6936
04-May-2019 21:34:13.760, 0.0175,-0.6902,-0.7020, 0.0017, 0.0231,-0.0047, 0.0236, 0.7815, 1.6918
04-May-2019 21:34:13.779, 0.0245,-0.7194,-0.6783, 0.0058, 0.0272,-0.0153, 0.0245, 0.8189, 1.6899
04-May-2019 21:34:13.799, 0.0217,-0.7433,-0.6417, 0.0090, 0.0188,-0.0067, 0.0255, 0.8563, 1.6879
04-May-2019 21:34:13.819, 0.0306,-0.7698,-0.5967, 0.0140, 0.0092, 0.0302, 0.0264, 0.8930, 1.6859
04-May-2019 21:34:13.838, 0.0137,-0.7809,-0.5993, 0.0092, 0.0181, 0.0073, 0.0270, 0.9198, 1.6846
04-May-2019 21:34:13.857, 0.0146,-0.8048,-0.5610,-0.0073, 0.0292,-0.0088, 0.0278, 0.9555, 1.6828
04-May-2019 21:34:13.877, 0.0088,-0.8221,-0.5208,-0.0032, 0.0208, 0.0021, 0.0289, 0.9910, 1.6809
04-May-2019 21:34:13.896, 0.0086,-0.8393,-0.4978,-0.0031, 0.0260, 0.0129, 0.0298, 1.0257, 1.6793
04-May-2019 21:34:13.916, 0.0050,-0.8590,-0.4934,-0.0083, 0.0205,-0.0065, 0.0305, 1.0597, 1.6779
04-May-2019 21:34:13.935, 0.0080,-0.8669,-0.4457,-0.0091, 0.0269,-0.0177, 0.0311, 1.0936, 1.6754
04-May-2019 21:34:13.954, 0.0071,-0.8759,-0.4002,-0.0047, 0.0301, 0.0095, 0.0316, 1.1273, 1.6725
04-May-2019 21:34:13.974, 0.0086,-0.8890,-0.3674,-0.0056, 0.0332, 0.0172, 0.0322, 1.1595, 1.6691
04-May-2019 21:34:13.994, 0.0071,-0.9044,-0.3326,-0.0043, 0.0343, 0.0139, 0.0333, 1.1897, 1.6649
04-May-2019 21:34:14.014, 0.0117,-0.9254,-0.2916,-0.0009, 0.0130, 0.0536, 0.0364, 1.2180, 1.6594
04-May-2019 21:34:14.033, 0.0168,-0.9442,-0.2659,-0.0028, 0.0073, 0.0513, 0.0402, 1.2378, 1.6543
04-May-2019 21:34:14.052, 0.0202,-0.9533,-0.2397, 0.0049, 0.0017, 0.0518, 0.0463, 1.2617, 1.6467
04-May-2019 21:34:14.071, 0.0337,-0.9681,-0.2053, 0.0166,-0.0046, 0.0606, 0.0526, 1.2828, 1.6391
04-May-2019 21:34:14.091, 0.0268,-0.9711,-0.2070, 0.0145,-0.0038, 0.0659, 0.0568, 1.3008, 1.6336
04-May-2019 21:34:14.110, 0.0175,-0.9768,-0.2447, 0.0074,-0.0049, 0.0310, 0.0589, 1.3160, 1.6307
04-May-2019 21:34:14.130, 0.0149,-0.9776,-0.2224, 0.0031,-0.0067,-0.0042, 0.0592, 1.3307, 1.6293
04-May-2019 21:34:14.149, 0.0121,-0.9843,-0.2283, 0.0070,-0.0099, 0.0075, 0.0581, 1.3456, 1.6295
04-May-2019 21:34:14.169, 0.0098,-0.9805,-0.2277,-0.0020,-0.0054,-0.0217, 0.0552, 1.3611, 1.6315
04-May-2019 21:34:14.188,-0.0066,-0.9699,-0.3205,-0.0165, 0.0116,-0.1291, 0.0516, 1.3780, 1.6333
04-May-2019 21:34:14.208, 0.0069,-0.9724,-0.1993,-0.0024, 0.0108, 0.0541, 0.0492, 1.3916, 1.6333
04-May-2019 21:34:14.227,-0.0012,-0.9711,-0.1750,-0.0115, 0.0123,-0.0294, 0.0487, 1.4110, 1.6322
04-May-2019 21:34:14.246, 0.0069,-0.9796,-0.1370,-0.0057, 0.0155,-0.0193, 0.0529, 1.4314, 1.6262
04-May-2019 21:34:14.266, 0.0125,-0.9882,-0.1108, 0.0022, 0.0072,-0.0073, 0.0633, 1.4523, 1.6135
04-May-2019 21:34:14.286, 0.0100,-0.9863,-0.0800, 0.0032, 0.0114, 0.0032, 0.0795, 1.4728, 1.5936
04-May-2019 21:34:14.305, 0.0217,-1.0006,-0.0352, 0.0049, 0.0083, 0.0153, 0.1065, 1.4923, 1.5618
04-May-2019 21:34:14.325, 0.0205,-0.9978,-0.0201, 0.0170,-0.0018, 0.0513, 0.1460, 1.5104, 1.5193
04-May-2019 21:34:14.344, 0.0204,-1.0014,-0.0190, 0.0155,-0.0013, 0.0263, 0.1993, 1.5266, 1.4645
04-May-2019 21:34:14.364, 0.0124,-1.0006, 0.0025, 0.0042,-0.0011, 0.0306, 0.2840, 1.5416, 1.3781
04-May-2019 21:34:14.383, 0.0157,-1.0056, 0.0251, 0.0051,-0.0016, 0.0217, 0.4113, 1.5519, 1.2497
04-May-2019 21:34:14.402, 0.0137,-1.0084, 0.0416, 0.0065,-0.0133, 0.0308, 0.9280, 1.5629, 0.7316
04-May-2019 21:34:14.422, 0.0070,-0.9810, 0.0594, 0.0051, 0.0076, 0.0517, 2.4573, 1.5638,-0.7993
04-May-2019 21:34:14.441,-0.0021,-1.0165, 0.0527,-0.0028, 0.0064, 0.0500, 2.9647, 1.5575,-1.3078
04-May-2019 21:34:14.460,-0.0109,-0.9817, 0.0521,-0.0051,-0.0005, 0.0351, 3.1099, 1.5520,-1.4534
04-May-2019 21:34:14.480,-0.0185,-1.0010, 0.0451,-0.0208, 0.0120, 0.0283,-3.1253, 1.5474,-1.5011
04-May-2019 21:34:14.500,-0.0174,-0.9812, 0.0466,-0.0127, 0.0043, 0.0156,-3.1266, 1.5436,-1.4993
04-May-2019 21:34:14.519,-0.0072,-1.0000, 0.0562,-0.0172, 0.0145, 0.0159, 3.1280, 1.5407,-1.4703
04-May-2019 21:34:14.539, 0.0072,-0.9948, 0.0600, 0.0009,-0.0080, 0.0319, 3.0897, 1.5392,-1.4316
04-May-2019 21:34:14.558, 0.0087,-1.0385, 0.0699, 0.0063, 0.0497, 0.0292, 3.0616, 1.5392,-1.4032
04-May-2019 21:34:14.577, 0.0153,-1.0270, 0.0471, 0.0118,-0.0662, 0.0274, 3.0185, 1.5405,-1.3594
04-May-2019 21:34:14.597, 0.0101,-0.9386, 0.0396, 0.0081, 0.0419, 0.0119, 2.9781, 1.5424,-1.3183
04-May-2019 21:34:14.616, 0.0241,-1.0743, 0.0260, 0.0049,-0.0442, 0.0145, 2.9161, 1.5437,-1.2552
04-May-2019 21:34:14.636, 0.0168,-0.9779, 0.0394, 0.0156, 0.0179, 0.0040, 2.8519, 1.5452,-1.1901
04-May-2019 21:34:14.655, 0.0176,-1.0039, 0.0277, 0.0135,-0.0224, 0.0232, 2.7872, 1.5475,-1.1246
04-May-2019 21:34:14.674, 0.0118,-0.9839, 0.0255, 0.0031, 0.0072, 0.0052, 2.7217, 1.5504,-1.0584
04-May-2019 21:34:14.694, 0.0101,-1.0368, 0.0200, 0.0020, 0.0043, 0.0114, 2.6408, 1.5534,-0.9770
04-May-2019 21:34:14.714, 0.0065,-0.9668,-0.0023, 0.0005,-0.0258,-0.0048, 2.5316, 1.5567,-0.8670
04-May-2019 21:34:14.733, 0.0028,-1.0189,-0.0231,-0.0052,-0.0189,-0.0321, 2.4151, 1.5587,-0.7492
04-May-2019 21:34:14.753, 0.0062,-0.9914, 0.0064,-0.0115, 0.0021,-0.0344, 2.3514, 1.5593,-0.6849
04-May-2019 21:34:14.772, 0.0048,-0.9992,-0.0059, 0.0007, 0.0046,-0.0085, 2.2914, 1.5598,-0.6244
04-May-2019 21:34:14.791, 0.0096,-0.9982, 0.0202, 0.0037,-0.0154,-0.0046, 2.2370, 1.5605,-0.5707
04-May-2019 21:34:14.811, 0.0090,-1.0119, 0.0161, 0.0019, 0.0119, 0.0161, 2.1818, 1.5614,-0.5159
04-May-2019 21:34:14.830, 0.0112,-1.0141, 0.0195, 0.0021,-0.0256, 0.0115, 2.1008, 1.5621,-0.4351
04-May-2019 21:34:14.850, 0.0122,-0.9928, 0.0129, 0.0033, 0.0043, 0.0154, 1.9767, 1.5625,-0.3110
04-May-2019 21:34:14.869, 0.0108,-1.0102, 0.0029, 0.0023,-0.0041, 0.0004, 1.8462, 1.5626,-0.1804
04-May-2019 21:34:14.889, 0.0177,-0.9971, 0.0121, 0.0078, 0.0013, 0.0079, 1.7289, 1.5624,-0.0628
04-May-2019 21:34:14.908, 0.0150,-1.0048,-0.0012, 0.0065,-0.0048,-0.0011, 1.5635, 1.5623, 0.1027
04-May-2019 21:34:14.928, 0.0103,-0.9977,-0.0045, 0.0032, 0.0009,-0.0071, 1.4376, 1.5623, 0.2286
04-May-2019 21:34:14.947, 0.0104,-1.0080,-0.0092, 0.0012,-0.0061,-0.0071, 1.3392, 1.5621, 0.3271
04-May-2019 21:34:14.967, 0.0131,-1.0011, 0.0079,-0.0002,-0.0018, 0.0056, 1.3268, 1.5619, 0.3395
04-May-2019 21:34:14.986, 0.0067,-1.0067,-0.0082, 0.0012,-0.0006, 0.0084, 1.3067, 1.5619, 0.3596
04-May-2019 21:34:15.005, 0.0055,-0.9904,-0.0138,-0.0030, 0.0026,-0.0189, 1.3038, 1.5620, 0.3625
04-May-2019 21:34:15.025, 0.0070,-0.9963,-0.0087,-0.0029, 0.0052,-0.0052, 1.3821, 1.5621, 0.2843
04-May-2019 21:34:15.044, 0.0083,-1.0021, 0.0027,-0.0028,-0.0015,-0.0077, 1.5237, 1.5620, 0.1429
04-May-2019 21:34:15.064, 0.0088,-1.0026, 0.0153,-0.0012, 0.0020, 0.0094, 1.6708, 1.5614,-0.0038
04-May-2019 21:34:15.083, 0.0104,-1.0012, 0.0142, 0.0004,-0.0012, 0.0121, 1.7724, 1.5606,-0.1047
04-May-2019 21:34:15.103, 0.0113,-1.0069, 0.0072,-0.0001,-0.0023, 0.0015, 1.8354, 1.5599,-0.1669
04-May-2019 21:34:15.123, 0.0221,-1.0011, 0.0279, 0.0078,-0.0088, 0.0113, 1.9016, 1.5592,-0.2321
04-May-2019 21:34:15.142, 0.0130,-0.9966, 0.0228, 0.0053, 0.0054, 0.0322, 1.8982, 1.5592,-0.2285
04-May-2019 21:34:15.161, 0.0098,-1.0130, 0.0125, 0.0027,-0.0081, 0.0101, 1.8227, 1.5599,-0.1529
04-May-2019 21:34:15.181, 0.0102,-1.0055, 0.0082, 0.0019,-0.0074, 0.0043, 1.7223, 1.5604,-0.0527
04-May-2019 21:34:15.200, 0.0110,-0.9995, 0.0077, 0.0001,-0.0021, 0.0075, 1.6191, 1.5608, 0.0503
04-May-2019 21:34:15.220, 0.0091,-1.0028, 0.0017,-0.0002, 0.0013, 0.0058, 1.5148, 1.5610, 0.1542
04-May-2019 21:34:15.239, 0.0094,-1.0042,-0.0010, 0.0001,-0.0025, 0.0027, 1.4154, 1.5612, 0.2536
04-May-2019 21:34:15.259, 0.0086,-0.9970,-0.0068,-0.0005,-0.0045,-0.0034, 1.3252, 1.5612, 0.3437
04-May-2019 21:34:15.279, 0.0087,-1.0016, 0.0032,-0.0007,-0.0016, 0.0061, 1.2712, 1.5610, 0.3978
04-May-2019 21:34:15.298, 0.0082,-0.9992,-0.0022,-0.0007, 0.0020, 0.0043, 1.2416, 1.5608, 0.4274
04-May-2019 21:34:15.317, 0.0098,-1.0047,-0.0015,-0.0004,-0.0018,-0.0017, 1.2113, 1.5605, 0.4578
04-May-2019 21:34:15.337, 0.0095,-0.9996,-0.0072,-0.0003,-0.0023, 0.0020, 1.1776, 1.5602, 0.4914
04-May-2019 21:34:15.356, 0.0096,-0.9978,-0.0125,-0.0013, 0.0019,-0.0070, 1.1561, 1.5601, 0.5129
04-May-2019 21:34:15.375, 0.0097,-1.0005,-0.0019,-0.0007,-0.0007,-0.0051, 1.1825, 1.5601, 0.4865
04-May-2019 21:34:15.394, 0.0097,-1.0029,-0.0020,-0.0004,-0.0018, 0.0003, 1.2298, 1.5602, 0.4391
04-May-2019 21:34:15.415, 0.0104,-1.0055,-0.0002, 0.0001,-0.0025, 0.0043, 1.2959, 1.5602, 0.3731
04-May-2019 21:34:15.434, 0.0119,-1.0014, 0.0047,-0.0004,-0.0044, 0.0017, 1.3742, 1.5602, 0.2950
04-May-2019 21:34:15.453, 0.0096,-1.0013, 0.0052,-0.0009,-0.0013, 0.0065, 1.4495, 1.5602, 0.2198
04-May-2019 21:34:15.472, 0.0099,-1.0016, 0.0099,-0.0013,-0.0017, 0.0052, 1.5072, 1.5600, 0.1622
04-May-2019 21:34:15.492, 0.0110,-1.0016, 0.0041, 0.0007,-0.0046, 0.0097, 1.5729, 1.5597, 0.0968
04-May-2019 21:34:15.511, 0.0117,-1.0033, 0.0041, 0.0003,-0.0023,-0.0001, 1.6223, 1.5596, 0.0473
04-May-2019 21:34:15.531, 0.0139,-1.0025, 0.0188, 0.0010,-0.0007, 0.0067, 1.6714, 1.5595,-0.0020
04-May-2019 21:34:15.550, 0.0386,-1.0071, 0.0637,-0.0008, 0.0076, 0.0267, 1.6474, 1.5599, 0.0207
04-May-2019 21:34:15.570, 0.0076,-0.9981,-0.0118,-0.0150, 0.0063, 0.0060, 1.4681, 1.5606, 0.1987
04-May-2019 21:34:15.589, 0.0083,-1.0021,-0.0033,-0.0005,-0.0009, 0.0047, 1.2968, 1.5606, 0.3691
04-May-2019 21:34:15.608, 0.0084,-0.9993,-0.0176,-0.0046, 0.0012,-0.0125, 1.1731, 1.5601, 0.4925
04-May-2019 21:34:15.628, 0.0113,-1.0012,-0.0096, 0.0012,-0.0012,-0.0052, 1.1575, 1.5598, 0.5086
04-May-2019 21:34:15.648, 0.0096,-1.0020, 0.0204, 0.0035,-0.0048, 0.0164, 1.1575, 1.5596, 0.5090
04-May-2019 21:34:15.669, 0.0105,-1.0047,-0.0056,-0.0000,-0.0048,-0.0004, 1.1110, 1.5591, 0.5564
