Timestamp,accelX(g),accelY(g),accelZ(g),accelUserX(g),accelUserY(g),accelUserZ(g),Roll(rads),Pitch(rads),Yaw(rads)
04-May-2019 22:30:02.163, 0.1088,-0.8895,-0.4309,-0.0108,-0.0017, 0.0135, 0.2629, 1.0926,-1.1585
04-May-2019 22:30:02.166, 0.1088,-0.8895,-0.4309,-0.0113,-0.0016, 0.0132, 0.2640, 1.0928,-1.1585
04-May-2019 22:30:02.167, 0.1088,-0.8895,-0.4309,-0.0113,-0.0016, 0.0132, 0.2640, 1.0928,-1.1585
04-May-2019 22:30:02.168, 0.1088,-0.8895,-0.4309,-0.0113,-0.0016, 0.0132, 0.2640, 1.0928,-1.1585
04-May-2019 22:30:02.176, 0.1096,-0.9024,-0.4360,-0.0150,-0.0064, 0.0054, 0.2664, 1.0932,-1.1586
04-May-2019 22:30:02.196, 0.1164,-0.8952,-0.4349,-0.0109,-0.0113, 0.0064, 0.2710, 1.0942,-1.1586
04-May-2019 22:30:02.215, 0.1201,-0.8885,-0.4334,-0.0067,-0.0066, 0.0089, 0.2755, 1.0953,-1.1585
04-May-2019 22:30:02.235, 0.1253,-0.8877,-0.4345, 0.0015, 0.0025, 0.0064, 0.2802, 1.0964,-1.1589
04-May-2019 22:30:02.254, 0.1304,-0.8986,-0.4256, 0.0018, 0.0020, 0.0139, 0.2833, 1.0976,-1.1594
04-May-2019 22:30:02.274, 0.1291,-0.9151,-0.4274,-0.0021,-0.0191, 0.0073, 0.2879, 1.0991,-1.1599
04-May-2019 22:30:02.293, 0.1179,-0.8972,-0.4334, 0.0005,-0.0175,-0.0403, 0.2951, 1.1005,-1.1611
04-May-2019 22:30:02.312, 0.1298,-0.9006,-0.4327,-0.0104,-0.0075, 0.0092, 0.3024, 1.1021,-1.1625
04-May-2019 22:30:02.332, 0.1280,-0.9018,-0.4364,-0.0086,-0.0096,-0.0115, 0.3102, 1.1040,-1.1634
04-May-2019 22:30:02.352, 0.1391,-0.9098,-0.4164,-0.0081,-0.0092,-0.0002, 0.3192, 1.1065,-1.1650
04-May-2019 22:30:02.371, 0.1514,-0.8920,-0.4261, 0.0069,-0.0098,-0.0023, 0.3288, 1.1087,-1.1666
04-May-2019 22:30:02.391, 0.1504,-0.8994,-0.4235, 0.0065, 0.0123, 0.0074, 0.3378, 1.1113,-1.1678
04-May-2019 22:30:02.410, 0.1434,-0.9047,-0.4208,-0.0027,-0.0010,-0.0092, 0.3469, 1.1144,-1.1687
04-May-2019 22:30:02.430, 0.1502,-0.8940,-0.3960,-0.0025, 0.0048, 0.0148, 0.3558, 1.1171,-1.1699
04-May-2019 22:30:02.449, 0.1559,-0.9013,-0.4048,-0.0032, 0.0049, 0.0214, 0.3613, 1.1182,-1.1704
04-May-2019 22:30:02.468, 0.1693,-0.9175,-0.4280, 0.0068,-0.0096,-0.0114, 0.3680, 1.1199,-1.1699
04-May-2019 22:30:02.488, 0.1680,-0.9232,-0.4148, 0.0161,-0.0168,-0.0252, 0.3760, 1.1243,-1.1692
04-May-2019 22:30:02.508, 0.1545,-0.9211,-0.3776, 0.0053,-0.0256,-0.0002, 0.3849, 1.1301,-1.1696
04-May-2019 22:30:02.527, 0.1505,-0.9257,-0.3581,-0.0184,-0.0128, 0.0140, 0.3931, 1.1341,-1.1701
04-May-2019 22:30:02.546, 0.1469,-0.9183,-0.3658,-0.0131,-0.0132, 0.0284, 0.3995, 1.1358,-1.1705
04-May-2019 22:30:02.566, 0.1667,-0.9116,-0.3900,-0.0041,-0.0134, 0.0035, 0.4055, 1.1376,-1.1710
04-May-2019 22:30:02.585, 0.1748,-0.8932,-0.4002, 0.0159, 0.0181, 0.0072, 0.4099, 1.1412,-1.1713
04-May-2019 22:30:02.605, 0.1617,-0.9039,-0.3887,-0.0038, 0.0071,-0.0109, 0.4129, 1.1456,-1.1705
04-May-2019 22:30:02.624, 0.1667,-0.8924,-0.3968,-0.0076, 0.0177,-0.0136, 0.4157, 1.1499,-1.1696
04-May-2019 22:30:02.643, 0.1818,-0.9044,-0.3981, 0.0115, 0.0216,-0.0340, 0.4212, 1.1576,-1.1678
04-May-2019 22:30:02.663, 0.1819,-0.9062,-0.3950, 0.0239, 0.0083,-0.0380, 0.4298, 1.1699,-1.1661
04-May-2019 22:30:02.682, 0.1127,-0.9002,-0.3758, 0.0376, 0.0215,-0.0559, 0.4468, 1.1865,-1.1672
04-May-2019 22:30:02.702, 0.1517,-0.8714,-0.3896,-0.0297, 0.0718,-0.0906, 0.4801, 1.2075,-1.1771
04-May-2019 22:30:02.721, 0.1580,-0.8855,-0.3728, 0.0002, 0.0800,-0.1106, 0.5299, 1.2320,-1.1989
04-May-2019 22:30:02.741, 0.1625,-0.9065,-0.2840, 0.0246, 0.0648,-0.0888, 0.5916, 1.2579,-1.2267
04-May-2019 22:30:02.760, 0.1224,-0.9363,-0.2230,-0.0223, 0.0401,-0.0167, 0.6644, 1.2838,-1.2610
04-May-2019 22:30:02.780, 0.0592,-0.9536,-0.1434,-0.0770, 0.0135,-0.0047, 0.7354, 1.3074,-1.2881
04-May-2019 22:30:02.799, 0.0791,-0.9989,-0.0668,-0.0931,-0.0284, 0.1022, 0.7949, 1.3271,-1.2987
04-May-2019 22:30:02.819, 0.0987,-1.0186,-0.0631,-0.0752,-0.0449, 0.0870, 0.8396, 1.3401,-1.3052
04-May-2019 22:30:02.838, 0.1357,-1.0006,-0.0757,-0.0547,-0.0283, 0.0720, 0.9031, 1.3550,-1.3194
04-May-2019 22:30:02.858, 0.1484,-1.0027,-0.0590,-0.0215,-0.0226, 0.0399, 0.9572, 1.3648,-1.3271
04-May-2019 22:30:02.877, 0.1602,-1.0156,-0.0411,-0.0181,-0.0272, 0.0609, 0.9901, 1.3690,-1.3170
04-May-2019 22:30:02.896, 0.1945,-1.0046,-0.0374, 0.0053,-0.0345, 0.0700, 1.0183, 1.3719,-1.3102
04-May-2019 22:30:02.916, 0.1901,-1.0114,-0.0567, 0.0360,-0.0310, 0.0490, 1.0388, 1.3747,-1.3096
04-May-2019 22:30:02.935, 0.1649,-1.0043,-0.0828, 0.0075,-0.0205, 0.0333, 1.0268, 1.3746,-1.2870
04-May-2019 22:30:02.955, 0.1760,-0.9862,-0.0903,-0.0003,-0.0238, 0.0127, 1.0035, 1.3724,-1.2557
04-May-2019 22:30:02.975, 0.1861,-0.9376,-0.1104, 0.0197, 0.0425,-0.0023, 0.9947, 1.3711,-1.2360
04-May-2019 22:30:02.994, 0.1991,-0.9429,-0.1041, 0.0306, 0.0471, 0.0088, 0.9909, 1.3708,-1.2209
04-May-2019 22:30:03.013, 0.1963,-1.0008,-0.1246, 0.0341, 0.0078,-0.0133, 0.9867, 1.3717,-1.2006
04-May-2019 22:30:03.033, 0.1811,-0.9941,-0.1245, 0.0283,-0.0182,-0.0039, 0.9791, 1.3743,-1.1796
04-May-2019 22:30:03.052, 0.1783,-0.9990,-0.1384, 0.0184,-0.0188,-0.0245, 0.9742, 1.3764,-1.1617
04-May-2019 22:30:03.072, 0.1595,-0.9561,-0.1237, 0.0076,-0.0020,-0.0268, 0.9759, 1.3778,-1.1485
04-May-2019 22:30:03.091, 0.1631,-0.9604,-0.1176, 0.0019, 0.0394,-0.0169, 0.9832, 1.3781,-1.1374
04-May-2019 22:30:03.110, 0.1371,-0.9795,-0.0643,-0.0097, 0.0046, 0.0146, 0.9929, 1.3798,-1.1299
04-May-2019 22:30:03.130, 0.1467,-0.9886,-0.0853,-0.0223, 0.0033, 0.0433, 0.9994, 1.3816,-1.1223
04-May-2019 22:30:03.149, 0.1633,-1.0238,-0.0877, 0.0016,-0.0322,-0.0053, 0.9964, 1.3828,-1.1096
04-May-2019 22:30:03.169, 0.1718,-1.0045,-0.0868,-0.0020,-0.0438, 0.0264, 0.9959, 1.3841,-1.1027
04-May-2019 22:30:03.188, 0.1583,-0.9605,-0.0707, 0.0123, 0.0163, 0.0006, 1.0098, 1.3868,-1.1018
04-May-2019 22:30:03.208, 0.1177,-0.9716,-0.0841,-0.0109, 0.0343, 0.0355, 1.0352, 1.3895,-1.1110
04-May-2019 22:30:03.227, 0.1382,-1.0173,-0.0668,-0.0371,-0.0159, 0.0093, 1.0643, 1.3915,-1.1246
04-May-2019 22:30:03.247, 0.1421,-1.0079,-0.0608,-0.0100,-0.0372, 0.0258, 1.0761, 1.3916,-1.1260
04-May-2019 22:30:03.266, 0.1353,-0.9733,-0.0741,-0.0221,-0.0097, 0.0114, 1.0768, 1.3902,-1.1198
04-May-2019 22:30:03.286, 0.1157,-0.9372,-0.0535,-0.0292, 0.0307, 0.0171, 1.0769, 1.3888,-1.1132
04-May-2019 22:30:03.305, 0.1574,-0.9966,-0.0586,-0.0339, 0.0152, 0.0567, 1.0663, 1.3850,-1.0993
04-May-2019 22:30:03.325, 0.2060,-0.9963,-0.0913, 0.0236,-0.0112, 0.0101, 1.0588, 1.3823,-1.0892
04-May-2019 22:30:03.344, 0.1816,-1.0148,-0.0882, 0.0406,-0.0243,-0.0001, 1.0502, 1.3817,-1.0771
04-May-2019 22:30:03.364, 0.1533,-1.0118,-0.0683,-0.0007,-0.0261, 0.0225, 1.0463, 1.3834,-1.0690
04-May-2019 22:30:03.383, 0.1483,-1.0272,-0.0707,-0.0145,-0.0359, 0.0164, 1.0502, 1.3856,-1.0681
04-May-2019 22:30:03.402, 0.1577,-0.9944,-0.0588,-0.0034,-0.0376, 0.0271, 1.0560, 1.3871,-1.0705
04-May-2019 22:30:03.422, 0.1334,-0.9456,-0.0630,-0.0075, 0.0251, 0.0305, 1.0625, 1.3886,-1.0747
04-May-2019 22:30:03.441, 0.1395,-0.9612,-0.0930,-0.0338, 0.0374, 0.0111, 1.0680, 1.3903,-1.0786
04-May-2019 22:30:03.461, 0.1521,-1.0222,-0.1100,-0.0041,-0.0024,-0.0267, 1.0752, 1.3932,-1.0837
04-May-2019 22:30:03.480, 0.1432,-1.0251,-0.0946,-0.0145,-0.0486,-0.0276, 1.0773, 1.3966,-1.0832
04-May-2019 22:30:03.500, 0.1326,-0.9900,-0.0762,-0.0010,-0.0264,-0.0138, 1.0845, 1.3999,-1.0864
04-May-2019 22:30:03.519, 0.1850,-0.9688,-0.0667, 0.0081, 0.0116, 0.0172, 1.0894, 1.4014,-1.0873
04-May-2019 22:30:03.538, 0.1916,-0.9453,-0.0890, 0.0563, 0.0344,-0.0018, 1.0874, 1.4012,-1.0815
04-May-2019 22:30:03.558, 0.1237,-0.9851,-0.0917, 0.0126, 0.0257,-0.0313, 1.0917, 1.4027,-1.0803
04-May-2019 22:30:03.577, 0.0847,-1.0163,-0.0838,-0.0697,-0.0390,-0.0104, 1.1002, 1.4047,-1.0836
04-May-2019 22:30:03.597, 0.0740,-1.0301,-0.0352,-0.0504,-0.0446, 0.0258, 1.1145, 1.4060,-1.0942
04-May-2019 22:30:03.616, 0.1144,-0.9521,-0.0702,-0.0753,-0.0049, 0.0124, 1.1372, 1.4083,-1.1130
04-May-2019 22:30:03.636, 0.2163,-0.9407,-0.0834, 0.0208, 0.0404,-0.0163, 1.1697, 1.4116,-1.1399
04-May-2019 22:30:03.655, 0.1785,-1.0028,-0.0416, 0.0748, 0.0097,-0.0185, 1.2028, 1.4157,-1.1686
04-May-2019 22:30:03.675, 0.1037,-1.0086,-0.0270,-0.0142,-0.0199, 0.0227, 1.2320, 1.4198,-1.1948
04-May-2019 22:30:03.694, 0.0725,-1.0286,-0.0334,-0.0686,-0.0396, 0.0120, 1.2594, 1.4220,-1.2207
04-May-2019 22:30:03.713, 0.0783,-0.9600,-0.0257,-0.0610, 0.0229, 0.0233, 1.2848, 1.4246,-1.2478
04-May-2019 22:30:03.733, 0.1222,-1.0274, 0.0042,-0.0522,-0.0049, 0.0043, 1.3422, 1.4313,-1.3112
04-May-2019 22:30:03.753, 0.0928,-1.0375,-0.0163,-0.0091,-0.0480, 0.0618, 1.4259, 1.4359,-1.4019
04-May-2019 22:30:03.773, 0.0842,-1.0225,-0.0246,-0.0614,-0.0384,-0.0257, 1.5065, 1.4394,-1.4892
04-May-2019 22:30:03.791, 0.1188,-1.0369,-0.0125,-0.0183,-0.0403,-0.0257, 1.5792, 1.4434,-1.5663
04-May-2019 22:30:03.811, 0.1272,-1.0186, 0.0161,-0.0023,-0.0488,-0.0039, 1.6565, 1.4464,-1.6468
04-May-2019 22:30:03.830, 0.1861,-0.9425,-0.0250, 0.0372, 0.0252,-0.0219, 1.7287, 1.4464,-1.7234
04-May-2019 22:30:03.850, 0.1926,-0.9063, 0.0386, 0.0724, 0.0666,-0.0079, 1.7472, 1.4449,-1.7498
04-May-2019 22:30:03.870, 0.1086,-0.9422, 0.0310,-0.0150, 0.0499, 0.0102, 1.7380, 1.4452,-1.7481
04-May-2019 22:30:03.889, 0.1261,-1.0143, 0.0433, 0.0323, 0.0496, 0.0178, 1.7170, 1.4462,-1.7332
04-May-2019 22:30:03.908, 0.1188,-1.0634,-0.0078, 0.0267,-0.0449, 0.0008, 1.6837, 1.4485,-1.7056
04-May-2019 22:30:03.928, 0.0787,-1.0897, 0.0374,-0.0109,-0.0741,-0.0009, 1.6287, 1.4477,-1.6580
04-May-2019 22:30:03.947, 0.1270,-0.9944, 0.0245,-0.0367,-0.0558, 0.0285, 1.5926, 1.4456,-1.6268
04-May-2019 22:30:03.967, 0.2045,-0.9185,-0.0048, 0.0499, 0.0383, 0.0100, 1.5734, 1.4436,-1.6118
04-May-2019 22:30:03.986, 0.1736,-0.9120,-0.0120, 0.0725, 0.0849,-0.0055, 1.5382, 1.4425,-1.5816
04-May-2019 22:30:04.005, 0.1848,-0.9155,-0.0282, 0.0344, 0.0686, 0.0000, 1.4855, 1.4404,-1.5325
04-May-2019 22:30:04.025, 0.1205,-0.9678,-0.0249, 0.0178, 0.0373,-0.0153, 1.4123, 1.4367,-1.4640
04-May-2019 22:30:04.044, 0.0796,-1.0062,-0.0119,-0.0538,-0.0157, 0.0201, 1.3349, 1.4332,-1.3904
04-May-2019 22:30:04.064, 0.0972,-1.0129, 0.0006,-0.0587,-0.0251, 0.0423, 1.2866, 1.4313,-1.3434
04-May-2019 22:30:04.083, 0.1062,-1.0032,-0.0271,-0.0350,-0.0116, 0.0261, 1.2380, 1.4298,-1.2969
04-May-2019 22:30:04.103, 0.1152,-1.0013,-0.0413,-0.0271,-0.0079, 0.0105, 1.1994, 1.4291,-1.2601
04-May-2019 22:30:04.122, 0.1195,-0.9962,-0.0261,-0.0154,-0.0133, 0.0207, 1.1702, 1.4284,-1.2316
04-May-2019 22:30:04.142, 0.1080,-1.0485,-0.0338,-0.0169,-0.0245, 0.0278, 1.1498, 1.4269,-1.2119
04-May-2019 22:30:04.161, 0.1110,-1.0547,-0.0491,-0.0268,-0.0678, 0.0198, 1.1434, 1.4258,-1.2073
04-May-2019 22:30:04.181, 0.1336,-1.0298,-0.0538,-0.0129,-0.0593, 0.0014, 1.1597, 1.4266,-1.2234
04-May-2019 22:30:04.200, 0.1310,-0.9827,-0.0305, 0.0088,-0.0127, 0.0086, 1.1893, 1.4296,-1.2504
04-May-2019 22:30:04.220, 0.1506,-0.9843,-0.0269, 0.0072, 0.0091, 0.0312, 1.2142, 1.4331,-1.2729
04-May-2019 22:30:04.239, 0.1093,-0.9600,-0.0682,-0.0094, 0.0176,-0.0123, 1.2255, 1.4354,-1.2823
04-May-2019 22:30:04.258, 0.1210,-1.0244,-0.0298, 0.0041, 0.0109, 0.0077, 1.2273, 1.4382,-1.2815
04-May-2019 22:30:04.278, 0.0944,-0.9989,-0.0263,-0.0244,-0.0397, 0.0074, 1.2411, 1.4412,-1.2926
04-May-2019 22:30:04.297, 0.1154,-0.9758,-0.0204,-0.0179, 0.0102, 0.0173, 1.2617, 1.4441,-1.3088
04-May-2019 22:30:04.317, 0.0627,-0.9529,-0.0503,-0.0036, 0.0253, 0.0084, 1.2744, 1.4460,-1.3194
04-May-2019 22:30:04.336,-0.0103,-1.0302,-0.0499,-0.0358,-0.0209,-0.0184, 1.2947, 1.4446,-1.3386
04-May-2019 22:30:04.356, 0.0891,-1.0130,-0.0485,-0.1095,-0.0044,-0.0091, 1.3307, 1.4416,-1.3722
04-May-2019 22:30:04.376, 0.1942,-0.9935, 0.0089, 0.0419,-0.0072, 0.0081, 1.3444, 1.4410,-1.3859
04-May-2019 22:30:04.394, 0.1558,-0.9812, 0.0058, 0.0579, 0.0072, 0.0477, 1.3344, 1.4422,-1.3772
04-May-2019 22:30:04.414, 0.1088,-0.9837,-0.0431, 0.0021, 0.0068, 0.0170, 1.3181, 1.4427,-1.3626
04-May-2019 22:30:04.434, 0.1040,-1.0120,-0.0582,-0.0175, 0.0016,-0.0284, 1.2990, 1.4430,-1.3462
04-May-2019 22:30:04.453, 0.1294,-1.0120,-0.0351,-0.0055,-0.0097,-0.0114, 1.2950, 1.4436,-1.3437
04-May-2019 22:30:04.472, 0.1443,-1.0486,-0.0237, 0.0159,-0.0352, 0.0038, 1.3056, 1.4447,-1.3559
04-May-2019 22:30:04.492, 0.1436,-1.0243,-0.0282, 0.0333,-0.0545,-0.0053, 1.3276, 1.4465,-1.3802
04-May-2019 22:30:04.511, 0.0970,-0.9890,-0.0266, 0.0021,-0.0144, 0.0003, 1.3653, 1.4491,-1.4197
04-May-2019 22:30:04.531, 0.0754,-0.9754,-0.0210,-0.0278, 0.0249,-0.0082, 1.4110, 1.4525,-1.4656
04-May-2019 22:30:04.550, 0.0941,-0.9833,-0.0194,-0.0219, 0.0092,-0.0074, 1.4497, 1.4569,-1.5033
04-May-2019 22:30:04.569, 0.0571,-1.0233,-0.0005,-0.0328, 0.0111, 0.0044, 1.4733, 1.4608,-1.5262
04-May-2019 22:30:04.589, 0.0760,-1.0380, 0.0003,-0.0313,-0.0438, 0.0095, 1.4861, 1.4628,-1.5394
04-May-2019 22:30:04.608, 0.0883,-1.0371,-0.0013,-0.0259,-0.0428, 0.0148, 1.4981, 1.4636,-1.5518
04-May-2019 22:30:04.628, 0.1060,-1.0143, 0.0033,-0.0096,-0.0408, 0.0037, 1.5261, 1.4648,-1.5799
04-May-2019 22:30:04.647, 0.1179,-0.9518,-0.0047,-0.0059, 0.0199, 0.0081, 1.5700, 1.4669,-1.6222
04-May-2019 22:30:04.667, 0.0963,-0.9643, 0.0018, 0.0164, 0.0203,-0.0139, 1.6194, 1.4694,-1.6681
04-May-2019 22:30:04.686, 0.1216,-0.9592, 0.0026,-0.0161, 0.0444,-0.0020, 1.6669, 1.4724,-1.7122
04-May-2019 22:30:04.705, 0.0702,-0.9920, 0.0280, 0.0049, 0.0183, 0.0093, 1.7159, 1.4763,-1.7571
04-May-2019 22:30:04.725, 0.0443,-1.0483, 0.1271,-0.0340,-0.0133, 0.0124, 1.7673, 1.4815,-1.8040
04-May-2019 22:30:04.744, 0.1380,-0.9820,-0.0406,-0.0016,-0.0071,-0.0209, 1.8490, 1.4849,-1.8773
04-May-2019 22:30:04.764, 0.1115,-0.9639,-0.0120, 0.0327, 0.0327,-0.0384, 1.8943, 1.4876,-1.9193
04-May-2019 22:30:04.783, 0.0574,-0.9594, 0.0344, 0.0060, 0.0315, 0.0017, 1.9094, 1.4906,-1.9338
04-May-2019 22:30:04.803, 0.0267,-0.9197, 0.0475,-0.0401, 0.0881, 0.0018, 1.9185, 1.4952,-1.9412
04-May-2019 22:30:04.822, 0.0474,-1.0173, 0.0572,-0.0538, 0.0157, 0.0246, 1.9102, 1.4972,-1.9316
04-May-2019 22:30:04.842, 0.0613,-1.0798, 0.0569,-0.0044,-0.0626, 0.0389, 1.9099, 1.4964,-1.9294
04-May-2019 22:30:04.861, 0.1104,-1.1206, 0.0361, 0.0065,-0.1067, 0.0222, 1.8973, 1.4940,-1.9119
04-May-2019 22:30:04.881, 0.0665,-0.9557, 0.0520, 0.0321,-0.0736, 0.0354, 1.9043, 1.4927,-1.9119
04-May-2019 22:30:04.900, 0.0149,-0.8583, 0.0421,-0.0479, 0.1221, 0.0251, 1.9160, 1.4916,-1.9157
04-May-2019 22:30:04.920, 0.0931,-1.0213, 0.0319,-0.0393, 0.0890, 0.0087, 1.9065, 1.4900,-1.9000
04-May-2019 22:30:04.939, 0.0990,-1.0447, 0.0217, 0.0408,-0.1014,-0.0105, 1.8972, 1.4889,-1.8874
04-May-2019 22:30:04.959, 0.0125,-0.8840, 0.0394,-0.0234, 0.0400, 0.0116, 1.8874, 1.4887,-1.8774
04-May-2019 22:30:04.978, 0.0173,-0.9444, 0.0602,-0.0833, 0.1216, 0.0314, 1.8548, 1.4867,-1.8438
04-May-2019 22:30:04.997, 0.0718,-1.0255, 0.0443,-0.0616, 0.0318, 0.0299, 1.8218, 1.4819,-1.8062
04-May-2019 22:30:05.017, 0.1519,-1.1135, 0.0439, 0.0284,-0.1029, 0.0009, 1.8155, 1.4774,-1.7924
04-May-2019 22:30:05.036, 0.0446,-1.0058, 0.0456, 0.0237,-0.0804, 0.0220, 1.8333, 1.4746,-1.8020
04-May-2019 22:30:05.056, 0.4346,-1.0341,-0.0888,-0.2249, 0.1602,-0.2513, 1.7231, 1.4704,-1.7046
04-May-2019 22:30:05.075, 0.0634,-0.9591, 0.1161,-0.1065, 0.0722, 0.4575, 1.4391, 1.4652,-1.4655
04-May-2019 22:30:05.095, 0.1339,-1.0746,-0.0842, 0.0293, 0.0129,-0.0702, 1.4112, 1.4645,-1.4392
04-May-2019 22:30:05.114, 0.0888,-1.0761,-0.0307,-0.0156,-0.0485,-0.0150, 1.3666, 1.4619,-1.3965
04-May-2019 22:30:05.134, 0.0799,-1.0096,-0.0238,-0.0519,-0.0280, 0.0361, 1.3241, 1.4596,-1.3551
04-May-2019 22:30:05.155, 0.1339,-0.9878,-0.0743, 0.0260, 0.0060,-0.0449, 1.3046, 1.4587,-1.3364
04-May-2019 22:30:05.172, 0.0396,-0.9239, 0.0127,-0.0223, 0.0383, 0.0100, 1.3332, 1.4604,-1.3640
04-May-2019 22:30:05.192, 0.0931,-0.9711,-0.0149,-0.0535, 0.0540, 0.0200, 1.3426, 1.4572,-1.3718
04-May-2019 22:30:05.211, 0.1500,-1.0470,-0.0212,-0.0074, 0.0007, 0.0190, 1.3239, 1.4522,-1.3521
04-May-2019 22:30:05.231, 0.1505,-1.0615,-0.0107, 0.0385,-0.0571, 0.0032, 1.3054, 1.4512,-1.3340
04-May-2019 22:30:05.250, 0.1333,-1.0240,-0.0094, 0.0371,-0.0551, 0.0279, 1.2966, 1.4531,-1.3260
04-May-2019 22:30:05.270, 0.0977,-0.9913,-0.0366,-0.0148, 0.0082,-0.0015, 1.2988, 1.4547,-1.3292
04-May-2019 22:30:05.289, 0.0956,-1.0469,-0.0098,-0.0080,-0.0371, 0.0224, 1.3201, 1.4564,-1.3519
04-May-2019 22:30:05.309, 0.0831,-1.0335, 0.0180,-0.0623, 0.0046, 0.0663, 1.3255, 1.4571,-1.3579
04-May-2019 22:30:05.328, 0.1132,-1.0236, 0.0233,-0.0058,-0.0257, 0.0393, 1.2999, 1.4547,-1.3319
04-May-2019 22:30:05.348, 0.1409,-0.9388,-0.0894, 0.0022,-0.0251,-0.0006, 1.2449, 1.4507,-1.2764
04-May-2019 22:30:05.368, 0.1737,-0.9322,-0.0693, 0.0764, 0.1140,-0.0685, 1.2529, 1.4520,-1.2825
04-May-2019 22:30:05.387, 0.1284,-1.0167,-0.0350, 0.0270, 0.0268,-0.0069, 1.2947, 1.4586,-1.3210
04-May-2019 22:30:05.406, 0.1044,-1.0635,-0.0370, 0.0318,-0.0638,-0.0226, 1.3490, 1.4654,-1.3699
04-May-2019 22:30:05.425, 0.0595,-0.9965, 0.0035,-0.0247,-0.0293, 0.0012, 1.4487, 1.4730,-1.4623
04-May-2019 22:30:05.445, 0.0504,-1.0177,-0.0087,-0.0508, 0.0095,-0.0082, 1.5446, 1.4775,-1.5509
04-May-2019 22:30:05.464, 0.0620,-1.0607, 0.0025,-0.0152,-0.0676,-0.0137, 1.6169, 1.4805,-1.6176
04-May-2019 22:30:05.484, 0.0753,-1.0145, 0.0055,-0.0265,-0.0418, 0.0001, 1.6594, 1.4818,-1.6563
04-May-2019 22:30:05.504, 0.0716,-0.9606, 0.0127,-0.0160, 0.0083,-0.0043, 1.7045, 1.4826,-1.6962
04-May-2019 22:30:05.523, 0.0939,-0.9809, 0.0149,-0.0077, 0.0412, 0.0047, 1.7274, 1.4826,-1.7153
04-May-2019 22:30:05.542, 0.1135,-1.0093, 0.0103, 0.0230,-0.0127,-0.0039, 1.7431, 1.4826,-1.7286
04-May-2019 22:30:05.562, 0.1036,-0.9669, 0.0111, 0.0190, 0.0134,-0.0070, 1.7749, 1.4832,-1.7581
04-May-2019 22:30:05.581, 0.1050,-1.0033, 0.0049, 0.0280, 0.0081,-0.0168, 1.8203, 1.4836,-1.8007
04-May-2019 22:30:05.600, 0.0594,-0.9844, 0.0106,-0.0026,-0.0060,-0.0178, 1.8671, 1.4842,-1.8447
04-May-2019 22:30:05.620, 0.0514,-0.9641, 0.0210,-0.0263, 0.0309,-0.0126, 1.9069, 1.4852,-1.8830
04-May-2019 22:30:05.639, 0.0655,-1.0034, 0.0164,-0.0178, 0.0136,-0.0128, 1.9423, 1.4859,-1.9177
04-May-2019 22:30:05.659, 0.0550,-1.0107, 0.0104,-0.0223,-0.0143,-0.0223, 1.9707, 1.4867,-1.9460
04-May-2019 22:30:05.678, 0.0575,-1.0053, 0.0225,-0.0226,-0.0098,-0.0167, 1.9848, 1.4874,-1.9602
04-May-2019 22:30:05.698, 0.0641,-1.0131, 0.0176,-0.0103,-0.0149,-0.0142, 2.0030, 1.4877,-1.9789
04-May-2019 22:30:05.717, 0.0544,-0.9899, 0.0169,-0.0121,-0.0072,-0.0176, 2.0217, 1.4874,-1.9985
04-May-2019 22:30:05.737, 0.0471,-0.9831, 0.0260,-0.0213, 0.0122,-0.0180, 2.0303, 1.4871,-2.0085
04-May-2019 22:30:05.756, 0.0536,-0.9843, 0.0242,-0.0268, 0.0135,-0.0080, 2.0317, 1.4867,-2.0123
04-May-2019 22:30:05.776, 0.0819,-1.0045, 0.0251,-0.0038, 0.0039,-0.0117, 2.0334, 1.4866,-2.0166
04-May-2019 22:30:05.795, 0.0844,-0.9982, 0.0371, 0.0146,-0.0068,-0.0105, 2.0388, 1.4870,-2.0250
04-May-2019 22:30:05.815, 0.0712,-0.9916, 0.0396, 0.0060, 0.0050, 0.0047, 2.0517, 1.4871,-2.0405
04-May-2019 22:30:05.834, 0.0704,-0.9815, 0.0386,-0.0053, 0.0088,-0.0047, 2.0772, 1.4868,-2.0684
04-May-2019 22:30:05.855, 0.0853,-1.0108, 0.0488, 0.0131,-0.0143, 0.0060, 2.1058, 1.4868,-2.0994
04-May-2019 22:30:05.873, 0.0718,-0.9961, 0.0594, 0.0069,-0.0118, 0.0112, 2.1288, 1.4872,-2.1239
04-May-2019 22:30:05.892, 0.0790,-0.9929, 0.0524, 0.0088, 0.0050, 0.0110, 2.1665, 1.4877,-2.1625
04-May-2019 22:30:05.912, 0.0807,-1.0049, 0.0543, 0.0222,-0.0031,-0.0032, 2.2112, 1.4880,-2.2083
04-May-2019 22:30:05.931, 0.0533,-1.0064, 0.0603, 0.0043,-0.0073, 0.0088, 2.2465, 1.4885,-2.2444
04-May-2019 22:30:05.951, 0.0453,-1.0018, 0.0627,-0.0168,-0.0022, 0.0064, 2.2823, 1.4891,-2.2802
04-May-2019 22:30:05.970, 0.0506,-0.9963, 0.0612,-0.0111,-0.0034, 0.0067, 2.3172, 1.4896,-2.3157
04-May-2019 22:30:05.990, 0.0399,-1.0003, 0.0579,-0.0138, 0.0008, 0.0044, 2.3440, 1.4894,-2.3435
04-May-2019 22:30:06.009, 0.0456,-0.9976, 0.0614,-0.0189, 0.0010,-0.0001, 2.3561, 1.4893,-2.3567
04-May-2019 22:30:06.029, 0.0589,-1.0326, 0.0723,-0.0032,-0.0182, 0.0067, 2.3581, 1.4893,-2.3595
04-May-2019 22:30:06.048, 0.0583,-1.0245, 0.0887,-0.0049,-0.0304, 0.0275, 2.3571, 1.4891,-2.3595
04-May-2019 22:30:06.068, 0.0632,-1.0099, 0.0848, 0.0020,-0.0230, 0.0288, 2.3604, 1.4884,-2.3633
04-May-2019 22:30:06.088, 0.0459,-0.9930, 0.0847, 0.0011,-0.0044, 0.0256, 2.3703, 1.4875,-2.3735
04-May-2019 22:30:06.107, 0.0377,-0.9931, 0.0690,-0.0155, 0.0065, 0.0148, 2.3900, 1.4864,-2.3936
04-May-2019 22:30:06.126, 0.0360,-0.9901, 0.0659,-0.0182,-0.0010, 0.0039, 2.4105, 1.4854,-2.4149
04-May-2019 22:30:06.145, 0.0491,-1.0025, 0.0661,-0.0146, 0.0043, 0.0002, 2.4232, 1.4847,-2.4283
04-May-2019 22:30:06.165, 0.0456,-1.0107, 0.0778,-0.0078,-0.0118, 0.0047, 2.4329, 1.4840,-2.4386
04-May-2019 22:30:06.184, 0.0543,-1.0082, 0.0851,-0.0072,-0.0144, 0.0114, 2.4436, 1.4832,-2.4495
04-May-2019 22:30:06.204, 0.0473,-1.0080, 0.0930,-0.0006,-0.0122, 0.0170, 2.4525, 1.4826,-2.4586
04-May-2019 22:30:06.223, 0.0413,-0.9977, 0.0949,-0.0108,-0.0140, 0.0201, 2.4736, 1.4812,-2.4803
04-May-2019 22:30:06.243, 0.0350,-0.9776, 0.1040,-0.0161, 0.0114, 0.0264, 2.5118, 1.4791,-2.5197
04-May-2019 22:30:06.262, 0.0580,-0.9690, 0.0897,-0.0057, 0.0340, 0.0203, 2.5505, 1.4769,-2.5596
04-May-2019 22:30:06.282, 0.0529,-0.9696, 0.0902, 0.0253, 0.0281, 0.0214, 2.5696, 1.4749,-2.5790
04-May-2019 22:30:06.301, 0.0288,-1.0134, 0.0985,-0.0129,-0.0093, 0.0158, 2.5791, 1.4733,-2.5889
04-May-2019 22:30:06.322, 0.0305,-0.9957, 0.0910,-0.0029, 0.0319, 0.0186, 2.5923, 1.4713,-2.6025
04-May-2019 22:30:06.340, 0.0452,-0.9899, 0.0931,-0.0129,-0.0033, 0.0048, 2.6049, 1.4698,-2.6161
04-May-2019 22:30:06.360, 0.0277,-0.9978, 0.0867,-0.0144, 0.0013, 0.0022, 2.6151, 1.4682,-2.6278
04-May-2019 22:30:06.379, 0.0492,-0.9906, 0.0952,-0.0018, 0.0039, 0.0044, 2.6297, 1.4665,-2.6437
04-May-2019 22:30:06.398, 0.0327,-0.9980, 0.1071,-0.0109,-0.0030, 0.0111, 2.6392, 1.4650,-2.6544
04-May-2019 22:30:06.418, 0.0286,-0.9859, 0.1074,-0.0218, 0.0040, 0.0142, 2.6530, 1.4629,-2.6698
04-May-2019 22:30:06.438, 0.0464,-1.0041, 0.0863,-0.0163, 0.0015,-0.0003, 2.6640, 1.4612,-2.6827
04-May-2019 22:30:06.457, 0.0553,-1.0117, 0.0909, 0.0064,-0.0193,-0.0144, 2.6712, 1.4599,-2.6916
04-May-2019 22:30:06.476, 0.0546,-0.9914, 0.1044, 0.0029,-0.0079,-0.0013, 2.6732, 1.4599,-2.6945
04-May-2019 22:30:06.496, 0.0572,-0.9797, 0.1057, 0.0070, 0.0078, 0.0067, 2.6774, 1.4601,-2.6997
04-May-2019 22:30:06.515, 0.0368,-0.9576, 0.1080, 0.0063, 0.0294, 0.0083, 2.6840, 1.4601,-2.7076
04-May-2019 22:30:06.535, 0.0265,-0.9944, 0.0977,-0.0188, 0.0205, 0.0036, 2.6940, 1.4598,-2.7188
04-May-2019 22:30:06.554, 0.0145,-1.0147, 0.0965,-0.0322,-0.0209,-0.0042, 2.7074, 1.4596,-2.7336
04-May-2019 22:30:06.574, 0.0169,-1.0052, 0.1011,-0.0333,-0.0255,-0.0049, 2.7182, 1.4593,-2.7450
04-May-2019 22:30:06.593, 0.0268,-0.9949, 0.1098,-0.0189, 0.0005, 0.0024, 2.7290, 1.4593,-2.7563
04-May-2019 22:30:06.612, 0.0265,-1.0004, 0.1172,-0.0139,-0.0149, 0.0117, 2.7319, 1.4594,-2.7600
04-May-2019 22:30:06.632, 0.0334,-0.9806, 0.1148,-0.0213, 0.0065, 0.0119, 2.7290, 1.4596,-2.7586
04-May-2019 22:30:06.651, 0.0508,-0.9869, 0.0938,-0.0035, 0.0089, 0.0043, 2.7209, 1.4600,-2.7521
04-May-2019 22:30:06.672, 0.0511,-0.9917, 0.0927, 0.0074, 0.0067,-0.0080, 2.7061, 1.4614,-2.7388
04-May-2019 22:30:06.690, 0.0480,-1.0097, 0.1024, 0.0058,-0.0071, 0.0014, 2.6879, 1.4631,-2.7222
04-May-2019 22:30:06.710, 0.0382,-0.9951, 0.1029,-0.0050,-0.0070, 0.0139, 2.6755, 1.4648,-2.7114
04-May-2019 22:30:06.729, 0.0414,-0.9862, 0.0885,-0.0032, 0.0056, 0.0003, 2.6728, 1.4667,-2.7100
04-May-2019 22:30:06.750, 0.0372,-0.9898, 0.0892,-0.0088, 0.0050,-0.0017, 2.6734, 1.4687,-2.7114
04-May-2019 22:30:06.768, 0.0350,-0.9842, 0.0928,-0.0092, 0.0067, 0.0021, 2.6763, 1.4701,-2.7148
04-May-2019 22:30:06.788, 0.0241,-0.9826, 0.0941,-0.0166, 0.0165, 0.0029, 2.6838, 1.4717,-2.7232
04-May-2019 22:30:06.807, 0.0267,-1.0014, 0.0920,-0.0168, 0.0069, 0.0052, 2.6898, 1.4735,-2.7306
04-May-2019 22:30:06.826, 0.0405,-1.0028, 0.0965,-0.0128,-0.0134, 0.0111, 2.6884, 1.4758,-2.7309
04-May-2019 22:30:06.846, 0.0515,-1.0019, 0.1023, 0.0043,-0.0048, 0.0199, 2.6844, 1.4780,-2.7283
04-May-2019 22:30:06.866, 0.0525,-0.9913, 0.1005, 0.0142,-0.0001, 0.0182, 2.6845, 1.4798,-2.7293
04-May-2019 22:30:06.885, 0.0431,-0.9925, 0.1011, 0.0058, 0.0021, 0.0224, 2.6897, 1.4811,-2.7348
04-May-2019 22:30:06.904, 0.0419,-0.9911, 0.0980, 0.0033, 0.0073, 0.0149, 2.6995, 1.4819,-2.7444
04-May-2019 22:30:06.924, 0.0251,-0.9997, 0.0931,-0.0119,-0.0036, 0.0133, 2.7084, 1.4827,-2.7526
04-May-2019 22:30:06.944, 0.0308,-0.9804, 0.0959, 0.0007, 0.0006, 0.0189, 2.7139, 1.4829,-2.7568
04-May-2019 22:30:06.962, 0.0120,-0.9640, 0.0961,-0.0132, 0.0309, 0.0133, 2.7151, 1.4821,-2.7570
04-May-2019 22:30:06.982, 0.0090,-0.9770, 0.0892,-0.0286, 0.0228, 0.0113, 2.7053, 1.4812,-2.7482
04-May-2019 22:30:07.002, 0.0092,-0.9896, 0.0933,-0.0308, 0.0151, 0.0140, 2.6788, 1.4818,-2.7240
04-May-2019 22:30:07.021, 0.0173,-0.9912, 0.0964,-0.0300, 0.0033, 0.0237, 2.6366, 1.4841,-2.6857
04-May-2019 22:30:07.040, 0.0378,-1.0530, 0.0866,-0.0133,-0.0324, 0.0268, 2.6175, 1.4859,-2.6697
04-May-2019 22:30:07.060, 0.0208,-1.0254, 0.0667,-0.0103,-0.0471,-0.0032, 2.6473, 1.4856,-2.6995
04-May-2019 22:30:07.079, 0.0120,-0.9883, 0.0759,-0.0230,-0.0005,-0.0097, 2.6974, 1.4839,-2.7493
04-May-2019 22:30:07.099, 0.1130,-1.0233, 0.1717, 0.0791,-0.0272, 0.0904, 2.7469, 1.4826,-2.7986
04-May-2019 22:30:07.118, 0.0432,-0.9954, 0.1046,-0.0113,-0.0096,-0.0870, 2.7853, 1.4826,-2.8349
04-May-2019 22:30:07.138, 0.1371,-1.0488, 0.2035, 0.0169,-0.0333, 0.0378, 2.8263, 1.4828,-2.8758
04-May-2019 22:30:07.157, 0.0828,-1.0031, 0.2193,-0.0586, 0.0235,-0.0631, 2.8716, 1.4832,-2.9188
04-May-2019 22:30:07.177, 0.0031,-0.9673, 0.1001,-0.0090,-0.0002,-0.0178, 2.9165, 1.4838,-2.9611
04-May-2019 22:30:07.197,-0.0150,-0.9789, 0.0737,-0.0177, 0.0065, 0.0207, 2.9489, 1.4851,-2.9940
04-May-2019 22:30:07.216,-0.0226,-1.0491, 0.0983,-0.0505,-0.0260,-0.0059, 2.9635, 1.4888,-3.0127
04-May-2019 22:30:07.235, 0.0261,-1.0462, 0.1386,-0.0088,-0.0566, 0.0534, 2.9712, 1.4938,-3.0266
04-May-2019 22:30:07.255, 0.0727,-1.0175, 0.0960, 0.0410,-0.0341, 0.0420, 2.9546, 1.4940,-3.0112
04-May-2019 22:30:07.274, 0.0293,-0.9905, 0.0892, 0.0120, 0.0062, 0.0105, 2.9245, 1.4901,-2.9801
04-May-2019 22:30:07.293,-0.0445,-0.9391, 0.0727,-0.0170, 0.0327,-0.0083, 2.9070, 1.4882,-2.9641
04-May-2019 22:30:07.313,-0.0570,-0.9675, 0.0610,-0.0864, 0.0505,-0.0033, 2.8859, 1.4876,-2.9478
04-May-2019 22:30:07.332,-0.0056,-0.9844, 0.0650,-0.0536, 0.0139,-0.0202, 2.8515, 1.4906,-2.9204
04-May-2019 22:30:07.352, 0.0322,-1.0199, 0.0656,-0.0116,-0.0032, 0.0017, 2.7772, 1.4975,-2.8568
04-May-2019 22:30:07.371, 0.0431,-1.0295, 0.0848, 0.0070,-0.0361, 0.0203, 2.6738, 1.5041,-2.7650
04-May-2019 22:30:07.390, 0.0648,-0.9914, 0.0964, 0.0229,-0.0151, 0.0354, 2.5683, 1.5082,-2.6681
04-May-2019 22:30:07.410, 0.0663,-0.8866, 0.0750, 0.0380, 0.0599, 0.0572, 2.4852, 1.5123,-2.5917
04-May-2019 22:30:07.429, 0.0297,-0.9326, 0.0578, 0.0216, 0.1155, 0.0239, 2.4791, 1.5171,-2.5910
04-May-2019 22:30:07.449, 0.0151,-1.0906, 0.0212,-0.0093,-0.0509, 0.0051, 2.4753, 1.5206,-2.5914
04-May-2019 22:30:07.468, 0.0037,-1.0268, 0.0354,-0.0219,-0.0682,-0.0214, 2.4811, 1.5212,-2.6001
04-May-2019 22:30:07.488, 0.0080,-1.0055, 0.0699,-0.0304,-0.0037, 0.0133, 2.4889, 1.5213,-2.6124
04-May-2019 22:30:07.507,-0.0201,-1.0035, 0.0180,-0.0233,-0.0088, 0.0051, 2.4849, 1.5220,-2.6131
04-May-2019 22:30:07.527,-0.0256,-1.0317, 0.0449,-0.0648,-0.0206,-0.0012, 2.4678, 1.5219,-2.6028
04-May-2019 22:30:07.546, 0.0104,-1.0289, 0.0467,-0.0307,-0.0357, 0.0013, 2.4616, 1.5220,-2.6024
04-May-2019 22:30:07.567, 0.0265,-1.0248, 0.0644,-0.0111,-0.0281, 0.0221, 2.4474, 1.5245,-2.5933
04-May-2019 22:30:07.585, 0.0422,-1.0095, 0.0494, 0.0117,-0.0217, 0.0416, 2.4430, 1.5275,-2.5944
04-May-2019 22:30:07.605, 0.0105,-0.9910, 0.0285,-0.0027, 0.0115,-0.0192, 2.4578, 1.5300,-2.6167
04-May-2019 22:30:07.624,-0.0002,-0.9759, 0.1226,-0.0227, 0.0095, 0.0425, 2.4635, 1.5327,-2.6299
04-May-2019 22:30:07.644, 0.0102,-0.9756, 0.1305,-0.0163, 0.0316, 0.1195, 2.3734, 1.5374,-2.5429
04-May-2019 22:30:07.663, 0.0128,-1.0303, 0.1540,-0.0120,-0.0058, 0.1301, 1.9473, 1.5450,-2.1191
04-May-2019 22:30:07.683, 0.0388,-1.0297, 0.0506, 0.0045,-0.0231, 0.1390, 1.2417, 1.5434,-1.4145
04-May-2019 22:30:07.702, 0.0594,-1.0510,-0.1292, 0.0238,-0.0586,-0.0511, 0.9708, 1.5358,-1.1462
04-May-2019 22:30:07.722, 0.0335,-1.0151,-0.1177, 0.0230,-0.0368,-0.1267, 1.1368, 1.5379,-1.3173
04-May-2019 22:30:07.741, 0.0162,-0.9543,-0.0385,-0.0042, 0.0153,-0.0745, 1.5914, 1.5432,-1.7737
04-May-2019 22:30:07.760, 0.0237,-0.9344, 0.0041,-0.0071, 0.0641,-0.0328, 1.9976, 1.5458,-2.1812
04-May-2019 22:30:07.780, 0.0682,-0.9576,-0.0193, 0.0270, 0.0610,-0.0112, 2.3312, 1.5465,-2.5180
04-May-2019 22:30:07.799, 0.0485,-1.0098,-0.0318, 0.0545, 0.0164,-0.0476, 2.5392, 1.5466,-2.7295
04-May-2019 22:30:07.818, 0.0048,-1.0383,-0.0202, 0.0081,-0.0310,-0.0616, 2.6690, 1.5467,-2.8616
04-May-2019 22:30:07.838,-0.0147,-1.0634,-0.0021,-0.0126,-0.0465,-0.0297, 2.8178, 1.5475,-3.0129
04-May-2019 22:30:07.858,-0.0363,-1.0892, 0.0260,-0.0303,-0.0801,-0.0044, 3.0172, 1.5496, 3.0682
04-May-2019 22:30:07.877,-0.0306,-1.0735, 0.0116,-0.0303,-0.0808,-0.0023,-2.8966, 1.5505, 2.6963
04-May-2019 22:30:07.896,-0.0135,-1.0349, 0.0249,-0.0082,-0.0661,-0.0057,-2.4479, 1.5475, 2.2437
04-May-2019 22:30:07.916,-0.0111,-0.9647, 0.0566, 0.0132, 0.0061, 0.0337,-2.1154, 1.5404, 1.9072
04-May-2019 22:30:07.935,-0.0187,-0.9467, 0.0386, 0.0232, 0.0518, 0.0325,-1.9486, 1.5324, 1.7373
04-May-2019 22:30:07.955,-0.0461,-0.9595, 0.0384, 0.0089, 0.0468, 0.0235,-1.8636, 1.5250, 1.6483
04-May-2019 22:30:07.974,-0.0591,-0.9788, 0.0060,-0.0000, 0.0369, 0.0162,-1.7979, 1.5185, 1.5790
04-May-2019 22:30:07.994,-0.0521,-0.9843, 0.0143, 0.0053, 0.0140, 0.0046,-1.7386, 1.5125, 1.5162
04-May-2019 22:30:08.013,-0.0372,-0.9893, 0.0177, 0.0199, 0.0129, 0.0100,-1.7046, 1.5080, 1.4799
04-May-2019 22:30:08.033,-0.0304,-0.9894, 0.0303, 0.0305, 0.0038, 0.0135,-1.6822, 1.5024, 1.4551
04-May-2019 22:30:08.052,-0.2064,-0.7996,-0.2508, 0.1848, 0.1174, 0.3414,-1.6850, 1.4991, 1.4631
04-May-2019 22:30:08.072, 0.0568,-1.0050,-0.0755, 0.0068, 0.0093,-0.1039,-1.7669, 1.5024, 1.5405
04-May-2019 22:30:08.091, 0.0871,-1.2555, 0.3051,-0.0074,-0.0031, 0.0557,-1.6355, 1.5087, 1.3941
04-May-2019 22:30:08.111,-0.0746,-0.9419,-0.0236,-0.0895,-0.1948,-0.1249,-1.5102, 1.5031, 1.2662
04-May-2019 22:30:08.130,-0.0408,-0.9283,-0.0212, 0.0202, 0.0710, 0.0350,-1.5398, 1.5019, 1.2965
04-May-2019 22:30:08.150,-0.0928,-0.9436,-0.0046, 0.0201, 0.0518,-0.0193,-1.5496, 1.5026, 1.3081
04-May-2019 22:30:08.169,-0.0355,-0.9951,-0.0338, 0.0036, 0.1096,-0.0177,-1.5692, 1.5045, 1.3297
04-May-2019 22:30:08.188,-0.0642,-1.0798, 0.0142, 0.0376,-0.0655,-0.0243,-1.5840, 1.5052, 1.3438
04-May-2019 22:30:08.208,-0.0956,-1.0810, 0.0164,-0.0565,-0.1191, 0.0201,-1.5851, 1.5041, 1.3429
04-May-2019 22:30:08.227, 0.0107,-0.9915,-0.0048, 0.0492,-0.0347,-0.0039,-1.5730, 1.5017, 1.3310
04-May-2019 22:30:08.247,-0.0085,-0.9289,-0.0008, 0.0809, 0.0200,-0.0231,-1.5421, 1.4994, 1.2989
04-May-2019 22:30:08.266,-0.0677,-0.9363, 0.0066, 0.0293, 0.0816, 0.0147,-1.4782, 1.4989, 1.2315
04-May-2019 22:30:08.286,-0.1154,-1.0011, 0.0199,-0.0219, 0.0277, 0.0285,-1.4325, 1.5002, 1.1848
04-May-2019 22:30:08.305,-0.1107,-1.0288,-0.0045,-0.0530,-0.0243, 0.0184,-1.4108, 1.5013, 1.1645
04-May-2019 22:30:08.325,-0.0828,-1.0084,-0.0201,-0.0269,-0.0274,-0.0001,-1.3919, 1.5015, 1.1477
04-May-2019 22:30:08.344,-0.0634,-0.9963,-0.0204,-0.0071, 0.0002,-0.0094,-1.3855, 1.5016, 1.1438
04-May-2019 22:30:08.364,-0.0685,-1.0052,-0.0111,-0.0060,-0.0113,-0.0013,-1.3890, 1.5019, 1.1493
04-May-2019 22:30:08.384,-0.0574,-0.9980,-0.0168, 0.0103,-0.0004,-0.0060,-1.4125, 1.5021, 1.1753
04-May-2019 22:30:08.403,-0.0715,-1.0005,-0.0152, 0.0076, 0.0003,-0.0033,-1.4338, 1.5019, 1.1968
04-May-2019 22:30:08.422,-0.0781,-1.0009,-0.0099,-0.0098,-0.0038,-0.0051,-1.4685, 1.5013, 1.2309
04-May-2019 22:30:08.441,-0.0893,-0.9545, 0.0453, 0.0041, 0.0065,-0.0024,-1.5027, 1.5003, 1.2642
04-May-2019 22:30:08.461,-0.0326,-1.0386,-0.0444, 0.0187,-0.0014,-0.0176,-1.5571, 1.4997, 1.3194
04-May-2019 22:30:08.480,-0.0960,-1.0001, 0.0009, 0.0013,-0.0206,-0.0089,-1.5784, 1.4992, 1.3364
04-May-2019 22:30:08.500,-0.0972,-1.0015,-0.0092,-0.0316, 0.0046,-0.0066,-1.5847, 1.4990, 1.3388
04-May-2019 22:30:08.520,-0.0913,-0.9824, 0.0111,-0.0243, 0.0017, 0.0045,-1.5877, 1.4987, 1.3393
04-May-2019 22:30:08.539,-0.0721,-0.9545, 0.0210, 0.0001, 0.0429, 0.0193,-1.5944, 1.4985, 1.3451
04-May-2019 22:30:08.558,-0.0354,-0.9445, 0.0097, 0.0239, 0.0409, 0.0100,-1.6054, 1.4987, 1.3560
04-May-2019 22:30:08.577,-0.0256,-0.9481, 0.0270, 0.0409, 0.0534, 0.0133,-1.6226, 1.4997, 1.3727
04-May-2019 22:30:08.597,-0.0339,-0.9859, 0.0173, 0.0385, 0.0338, 0.0140,-1.6369, 1.5022, 1.3873
04-May-2019 22:30:08.617,-0.0565,-1.0102, 0.0210, 0.0202,-0.0093, 0.0144,-1.6533, 1.5048, 1.4041
04-May-2019 22:30:08.636,-0.0923,-1.0144, 0.0305, 0.0153,-0.0069,-0.0014,-1.6797, 1.5078, 1.4309
04-May-2019 22:30:08.656,-0.0859,-0.9630, 0.0023,-0.0412,-0.0010, 0.0061,-1.7214, 1.5108, 1.4728
04-May-2019 22:30:08.675,-0.0754,-0.9085, 0.0154,-0.0127, 0.0587, 0.0129,-1.7947, 1.5151, 1.5466
04-May-2019 22:30:08.695,-0.0325,-0.9639, 0.0373,-0.0137, 0.1071, 0.0127,-1.9350, 1.5232, 1.6879
04-May-2019 22:30:08.714,-0.0160,-1.0627, 0.0334, 0.0194,-0.0635, 0.0125,-2.1043, 1.5296, 1.8565
04-May-2019 22:30:08.733,-0.0231,-1.1580, 0.0227, 0.0049,-0.1101,-0.0135,-2.1940, 1.5319, 1.9442
04-May-2019 22:30:08.753,-0.0315,-1.0515, 0.0296, 0.0004,-0.0970, 0.0061,-2.2150, 1.5323, 1.9640
04-May-2019 22:30:08.772,-0.0979,-1.0493, 0.0358,-0.0298,-0.0610, 0.0009,-2.1928, 1.5323, 1.9431
04-May-2019 22:30:08.792,-0.0190,-0.9285, 0.0081,-0.0820, 0.0400, 0.0381,-2.1892, 1.5304, 1.9411
04-May-2019 22:30:08.811,-0.0033,-0.9826, 0.0370, 0.0328, 0.0434,-0.0136,-2.2084, 1.5308, 1.9596
04-May-2019 22:30:08.831, 0.0034,-1.0326, 0.0471, 0.0171, 0.0013, 0.0170,-2.2253, 1.5323, 1.9744
04-May-2019 22:30:08.850,-0.0057,-1.0283, 0.0370, 0.0404,-0.0490, 0.0226,-2.2368, 1.5328, 1.9842
04-May-2019 22:30:08.870,-0.0340,-1.0124, 0.0417, 0.0020,-0.0135, 0.0156,-2.2417, 1.5326, 1.9881
04-May-2019 22:30:08.889,-0.0607,-0.9891, 0.0364,-0.0237, 0.0061, 0.0182,-2.2601, 1.5324, 2.0058
04-May-2019 22:30:08.909,-0.0219,-0.9987, 0.0350,-0.0228, 0.0150, 0.0177,-2.2802, 1.5325, 2.0255
04-May-2019 22:30:08.928,-0.0060,-1.0177, 0.0409, 0.0254,-0.0134, 0.0074,-2.2964, 1.5326, 2.0417
04-May-2019 22:30:08.947,-0.0047,-1.0380, 0.0505, 0.0175,-0.0226, 0.0240,-2.3090, 1.5324, 2.0544
04-May-2019 22:30:08.967,-0.0275,-1.0194, 0.0480, 0.0113,-0.0255, 0.0160,-2.3117, 1.5313, 2.0580
04-May-2019 22:30:08.986,-0.0562,-0.9750, 0.0450,-0.0130, 0.0003, 0.0119,-2.3136, 1.5300, 2.0611
04-May-2019 22:30:09.006,-0.0524,-0.9540, 0.0393,-0.0186, 0.0468, 0.0334,-2.3364, 1.5290, 2.0859
04-May-2019 22:30:09.025,-0.0512,-0.9952, 0.0385,-0.0125, 0.0253, 0.0076,-2.3776, 1.5288, 2.1287
04-May-2019 22:30:09.045,-0.0311,-1.0351, 0.0414,-0.0039,-0.0325,-0.0013,-2.4131, 1.5286, 2.1643
04-May-2019 22:30:09.064,-0.0587,-1.0034, 0.0298,-0.0129,-0.0226, 0.0026,-2.4418, 1.5280, 2.1924
04-May-2019 22:30:09.084,-0.0364,-1.0152, 0.0378,-0.0101,-0.0161, 0.0039,-2.4817, 1.5279, 2.2313
04-May-2019 22:30:09.103,-0.0324,-1.0391, 0.0666,-0.0279,-0.0163, 0.0055,-2.5026, 1.5280, 2.2513
04-May-2019 22:30:09.122,-0.0204,-1.1091, 0.0468, 0.0011,-0.0982, 0.0368,-2.4666, 1.5266, 2.2161
04-May-2019 22:30:09.142,-0.0108,-1.0348, 0.0489, 0.0238,-0.0930,-0.0014,-2.3515, 1.5220, 2.1031
04-May-2019 22:30:09.161,-0.0192,-0.9127, 0.0335, 0.0281,-0.0027, 0.0193,-2.2454, 1.5166, 1.9990
04-May-2019 22:30:09.181,-0.0299,-0.9373, 0.0290, 0.0148, 0.1112,-0.0031,-2.1864, 1.5135, 1.9402
04-May-2019 22:30:09.200,-0.0776,-0.9698, 0.0302, 0.0150,-0.0184, 0.0024,-2.1213, 1.5117, 1.8714
04-May-2019 22:30:09.219,-0.0147,-0.9980,-0.0132,-0.0154, 0.1006, 0.0062,-2.0563, 1.5112, 1.8007
04-May-2019 22:30:09.239,-0.0260,-0.9677, 0.0367, 0.0628,-0.0140,-0.0199,-1.9677, 1.5118, 1.7048
04-May-2019 22:30:09.258,-0.0232,-0.9388, 0.0071, 0.0138, 0.0669, 0.0126,-1.9087, 1.5129, 1.6409
04-May-2019 22:30:09.278,-0.0370,-0.9330,-0.0002, 0.0207, 0.0482,-0.0177,-1.8331, 1.5159, 1.5567
04-May-2019 22:30:09.297,-0.0559,-0.9307, 0.0072, 0.0039, 0.0832, 0.0012,-1.7424, 1.5209, 1.4557
04-May-2019 22:30:09.317,-0.0824,-0.9788, 0.0129,-0.0237, 0.0470, 0.0074,-1.6451, 1.5267, 1.3498
04-May-2019 22:30:09.336,-0.0819,-1.0179, 0.0007,-0.0444,-0.0159, 0.0147,-1.5469, 1.5319, 1.2453
04-May-2019 22:30:09.356,-0.0896,-1.0207,-0.0064,-0.0559,-0.0010, 0.0030,-1.4733, 1.5367, 1.1670
04-May-2019 22:30:09.375,-0.0811,-1.0424,-0.0054,-0.0525,-0.0451,-0.0062,-1.4296, 1.5405, 1.1198
04-May-2019 22:30:09.395,-0.0335,-1.0531,-0.0125,-0.0267,-0.0461, 0.0028,-1.4012, 1.5428, 1.0907
04-May-2019 22:30:09.414,-0.0286,-0.9790,-0.0204,-0.0201, 0.0093,-0.0185,-1.4357, 1.5459, 1.1253
04-May-2019 22:30:09.434,-0.0331,-0.9102,-0.0077,-0.0131, 0.0896,-0.0077,-1.5710, 1.5508, 1.2586
04-May-2019 22:30:09.454,-0.0179,-1.0145,-0.0047,-0.0129, 0.0568,-0.0229,-1.7530, 1.5558, 1.4379
04-May-2019 22:30:09.473, 0.0070,-1.0576,-0.0010, 0.0024,-0.0398,-0.0070,-2.0946, 1.5601, 1.7754
04-May-2019 22:30:09.492,-0.0002,-1.0664,-0.0027, 0.0147,-0.0685,-0.0063,-2.5325, 1.5613, 2.2113
04-May-2019 22:30:09.512, 0.0054,-1.0600, 0.0003, 0.0001,-0.0693,-0.0058,-2.8730, 1.5599, 2.5510
04-May-2019 22:30:09.531,-0.0092,-0.9889, 0.0113,-0.0011,-0.0136,-0.0115,-3.0923, 1.5579, 2.7684
04-May-2019 22:30:09.551, 0.0201,-0.9945, 0.0123, 0.0051, 0.0105,-0.0045, 3.0344, 1.5570, 2.9208
04-May-2019 22:30:09.570, 0.0070,-1.0336, 0.0132, 0.0205,-0.0115,-0.0042, 2.9268, 1.5575, 3.0233
04-May-2019 22:30:09.589,-0.0242,-1.0325, 0.0171,-0.0215,-0.0329,-0.0035, 2.8771, 1.5574, 3.0683
04-May-2019 22:30:09.609,-0.0076,-1.0419, 0.0397,-0.0112,-0.0420, 0.0255, 2.8949, 1.5562, 3.0479
04-May-2019 22:30:09.628, 0.0089,-1.0064, 0.0318, 0.0037,-0.0307, 0.0221, 2.9564, 1.5549, 2.9857
04-May-2019 22:30:09.647, 0.0136,-0.9958, 0.0228, 0.0103,-0.0021, 0.0038, 3.0347, 1.5527, 2.9057
04-May-2019 22:30:09.667, 0.0188,-0.9708, 0.0070, 0.0125, 0.0119,-0.0059, 3.0976, 1.5511, 2.8385
04-May-2019 22:30:09.687, 0.0154,-0.9896, 0.0434, 0.0249, 0.0384, 0.0057, 3.1050, 1.5506, 2.8255
04-May-2019 22:30:09.706, 0.0121,-1.0015, 0.0597, 0.0106, 0.0017, 0.0269, 3.1189, 1.5504, 2.8076
04-May-2019 22:30:09.726, 0.0131,-1.0434, 0.0267, 0.0150,-0.0232, 0.0351,-3.0944, 1.5496, 2.7366
04-May-2019 22:30:09.745, 0.0161,-1.0290, 0.0276, 0.0167,-0.0395,-0.0019,-3.0009, 1.5482, 2.6418
04-May-2019 22:30:09.764, 0.0088,-1.0085, 0.0806, 0.0176,-0.0330,-0.0012,-2.9282, 1.5463, 2.5685
04-May-2019 22:30:09.785, 0.0195,-0.9616, 0.0143, 0.0209, 0.0114, 0.0366,-2.8776, 1.5433, 2.5209
04-May-2019 22:30:09.804, 0.0089,-0.9783, 0.0167, 0.0165, 0.0212,-0.0117,-2.8783, 1.5413, 2.5211
04-May-2019 22:30:09.824, 0.0089,-0.9827, 0.0455, 0.0158, 0.0169, 0.0152,-2.9179, 1.5398, 2.5591
04-May-2019 22:30:09.842, 0.0378,-0.9944, 0.0671, 0.0247, 0.0166, 0.0193,-2.9560, 1.5387, 2.5970
04-May-2019 22:30:09.862, 0.0324,-1.0092, 0.0698, 0.0399,-0.0106, 0.0410,-3.0008, 1.5372, 2.6424
04-May-2019 22:30:09.881, 0.0376,-1.0116, 0.0718, 0.0470,-0.0096, 0.0411,-3.0300, 1.5354, 2.6725
04-May-2019 22:30:09.901, 0.0260,-1.0323, 0.0703, 0.0344,-0.0213, 0.0335,-3.0373, 1.5335, 2.6819
04-May-2019 22:30:09.920, 0.0267,-1.0331, 0.0587, 0.0305,-0.0341, 0.0287,-3.0347, 1.5308, 2.6824
04-May-2019 22:30:09.939, 0.0354,-1.0259, 0.0630, 0.0408,-0.0375, 0.0154,-3.0275, 1.5270, 2.6783
04-May-2019 22:30:09.959, 0.0661,-0.9993, 0.1256, 0.0298,-0.0229, 0.0254,-3.0267, 1.5229, 2.6810
04-May-2019 22:30:09.979, 0.0326,-0.9985, 0.0565, 0.0379, 0.0001, 0.0030,-3.0417, 1.5170, 2.7029
04-May-2019 22:30:09.998, 0.2236,-0.9874,-0.1694, 0.1224, 0.1021,-0.2333,-3.0753, 1.5130, 2.7371
04-May-2019 22:30:10.017, 0.0703,-1.1172, 0.2767,-0.0886, 0.1209, 0.1250,-3.1241, 1.5181, 2.7706
04-May-2019 22:30:10.037,-0.1489,-0.8918, 0.0044, 0.0924,-0.1746,-0.0620,-3.0361, 1.5204, 2.6884
04-May-2019 22:30:10.056,-0.0163,-0.9175, 0.0944,-0.0559, 0.1283, 0.1151,-3.0336, 1.5174, 2.6953
04-May-2019 22:30:10.076, 0.0146,-1.0406, 0.0306, 0.0088, 0.0196,-0.0051,-3.0650, 1.5140, 2.7420
04-May-2019 22:30:10.095, 0.0340,-1.1221, 0.0986, 0.0207,-0.1087,-0.0108,-3.0758, 1.5114, 2.7713
04-May-2019 22:30:10.115, 0.0643,-1.0224, 0.0914, 0.0528,-0.1087, 0.0197,-3.0870, 1.5050, 2.8101
04-May-2019 22:30:10.134, 0.0854,-1.0197, 0.1123, 0.0790,-0.0319, 0.0250,-3.1206, 1.4967, 2.8723
04-May-2019 22:30:10.156, 0.0999,-0.9903, 0.0837, 0.0983, 0.0063, 0.0016, 3.1219, 1.4886, 2.9388
04-May-2019 22:30:10.173, 0.0156,-0.9954, 0.0957, 0.0506, 0.0152, 0.0022, 3.0825, 1.4829, 2.9950
04-May-2019 22:30:10.193, 0.0386,-0.9661, 0.0601, 0.0033, 0.0131,-0.0189, 3.0196, 1.4764, 3.0776
04-May-2019 22:30:10.212, 0.0470,-0.9402, 0.0889, 0.0227, 0.0551,-0.0275, 2.9463, 1.4720,-3.1158
04-May-2019 22:30:10.232, 0.0310,-0.9669, 0.0773, 0.0051, 0.0624,-0.0174, 2.8840, 1.4698,-3.0356
04-May-2019 22:30:10.251, 0.0978,-0.9916, 0.0794, 0.0392, 0.0048,-0.0076, 2.8322, 1.4690,-2.9655
04-May-2019 22:30:10.270, 0.0763,-1.0188, 0.0882, 0.0567,-0.0016,-0.0100, 2.7876, 1.4688,-2.9032
04-May-2019 22:30:10.290, 0.0295,-0.9414, 0.0554, 0.0236, 0.0012,-0.0111, 2.7688, 1.4692,-2.8669
04-May-2019 22:30:10.310,-0.0273,-0.9291, 0.0945,-0.0855, 0.0913,-0.0617, 2.7309, 1.4671,-2.8115
04-May-2019 22:30:10.329, 0.0092,-1.0029, 0.0603,-0.0398,-0.0088,-0.0361, 2.6716, 1.4624,-2.7344
04-May-2019 22:30:10.349,-0.0238,-1.0098, 0.0738,-0.0785,-0.0161,-0.0236, 2.6297, 1.4589,-2.6795
04-May-2019 22:30:10.368, 0.0082,-1.0309, 0.0869,-0.0805,-0.0303,-0.0060, 2.6090, 1.4582,-2.6521
04-May-2019 22:30:10.387, 0.0050,-0.9704, 0.0712,-0.0481,-0.0104,-0.0343, 2.5952, 1.4591,-2.6319
04-May-2019 22:30:10.407, 0.0438,-0.9673, 0.1019,-0.0443, 0.0597, 0.0131, 2.5778, 1.4610,-2.6136
04-May-2019 22:30:10.426, 0.0078,-0.9545, 0.0671,-0.0208, 0.0379,-0.0231, 2.5486, 1.4670,-2.5889
04-May-2019 22:30:10.445, 0.0634,-1.0020, 0.1834,-0.0770, 0.0497, 0.0215, 2.5042, 1.4766,-2.5556
04-May-2019 22:30:10.465, 0.2370,-1.0720, 0.0349, 0.1156,-0.0536, 0.0365, 2.4558, 1.4831,-2.5107
04-May-2019 22:30:10.484,-0.1425,-1.0582, 0.1232,-0.0825,-0.1715, 0.0455, 2.4769, 1.4852,-2.5228
04-May-2019 22:30:10.504,-0.0586,-0.9915, 0.1086,-0.1917, 0.0356, 0.0622, 2.5236, 1.4846,-2.5496
04-May-2019 22:30:10.523,-0.1699,-1.0031, 0.0373,-0.0617, 0.0256,-0.0700, 2.5549, 1.4862,-2.5669
04-May-2019 22:30:10.543,-0.0801,-0.9772, 0.1091,-0.2524, 0.1448,-0.0902, 2.5303, 1.4900,-2.5335
04-May-2019 22:30:10.562, 0.0593,-1.0604, 0.0330,-0.0631,-0.0723, 0.0031, 2.4617, 1.4920,-2.4534
04-May-2019 22:30:10.582, 0.0195,-1.0125, 0.0443, 0.0399,-0.0528,-0.0599, 2.4136, 1.4957,-2.3994
04-May-2019 22:30:10.601, 0.0073,-0.9723, 0.1430,-0.0605, 0.0428, 0.0708, 2.3758, 1.4969,-2.3589
04-May-2019 22:30:10.621, 0.0530,-0.9755, 0.0469,-0.0342, 0.0489, 0.0708, 2.3293, 1.4989,-2.3063
04-May-2019 22:30:10.640, 0.0439,-1.0152, 0.0053, 0.0090,-0.0070,-0.0545, 2.2902, 1.5018,-2.2649
04-May-2019 22:30:10.659, 0.0136,-1.0142, 0.0753,-0.0268,-0.0142,-0.0032, 2.2729, 1.5041,-2.2476
04-May-2019 22:30:10.679, 0.0110,-1.0047, 0.1198,-0.0385,-0.0137, 0.0642, 2.2538, 1.5066,-2.2278
04-May-2019 22:30:10.699, 0.0058,-1.0083, 0.1034,-0.0417,-0.0101, 0.0651, 2.2489, 1.5097,-2.2232
04-May-2019 22:30:10.718, 0.0113,-1.0253, 0.0697,-0.0407,-0.0250, 0.0496, 2.2573, 1.5121,-2.2337
04-May-2019 22:30:10.737, 0.0229,-1.0171, 0.0580,-0.0208,-0.0234, 0.0250, 2.2937, 1.5152,-2.2752
04-May-2019 22:30:10.757, 0.0132,-1.0067, 0.0708,-0.0194,-0.0144, 0.0236, 2.3657, 1.5182,-2.3514
04-May-2019 22:30:10.776, 0.0264,-0.9897, 0.0926,-0.0164, 0.0002, 0.0437, 2.4801, 1.5208,-2.4679
04-May-2019 22:30:10.795, 0.0432,-0.9750, 0.1091, 0.0150, 0.0182, 0.0630, 2.6473, 1.5214,-2.6362
04-May-2019 22:30:10.815, 0.0423,-0.9849, 0.0919, 0.0298, 0.0210, 0.0568, 2.8057, 1.5199,-2.7959
04-May-2019 22:30:10.835, 0.0135,-1.0163, 0.0828, 0.0177, 0.0021, 0.0343, 2.9195, 1.5171,-2.9112
04-May-2019 22:30:10.854,-0.0449,-1.0748, 0.1109,-0.0559,-0.0515, 0.0111, 2.9964, 1.5119,-2.9880
04-May-2019 22:30:10.874, 0.0174,-1.0619, 0.0909, 0.0108,-0.0642, 0.0226, 3.0450, 1.5021,-3.0330
04-May-2019 22:30:10.893, 0.0163,-0.9996, 0.0903, 0.0122,-0.0381, 0.0146, 3.0699, 1.4940,-3.0555
04-May-2019 22:30:10.912, 0.0114,-0.9519, 0.0871, 0.0051, 0.0204, 0.0051, 3.0921, 1.4855,-3.0748
04-May-2019 22:30:10.932, 0.0128,-0.9454, 0.0816, 0.0086, 0.0529,-0.0071, 3.1039, 1.4801,-3.0837
04-May-2019 22:30:10.951, 0.0099,-0.9588, 0.0916, 0.0072, 0.0440,-0.0031, 3.1081, 1.4767,-3.0852
04-May-2019 22:30:10.971, 0.0098,-0.9843, 0.0907, 0.0056, 0.0230,-0.0068, 3.1055, 1.4756,-3.0798
04-May-2019 22:30:10.990, 0.0070,-1.0063, 0.0967, 0.0049,-0.0016,-0.0015, 3.0984, 1.4757,-3.0699
04-May-2019 22:30:11.010,-0.0021,-1.0162, 0.1000,-0.0009,-0.0153, 0.0092, 3.0893, 1.4761,-3.0579
04-May-2019 22:30:11.029,-0.0058,-1.0095, 0.0904,-0.0110,-0.0211,-0.0019, 3.0788, 1.4763,-3.0445
04-May-2019 22:30:11.049, 0.0035,-0.9918, 0.0900,-0.0035, 0.0038,-0.0038, 3.0673, 1.4766,-3.0298
04-May-2019 22:30:11.068, 0.0227,-0.9413, 0.0928, 0.0011, 0.0178,-0.0006, 3.0577, 1.4770,-3.0173
04-May-2019 22:30:11.088, 0.0476,-0.9374, 0.0405, 0.0398, 0.0980,-0.0051, 3.0356, 1.4780,-2.9907
04-May-2019 22:30:11.107,-0.0294,-1.0260, 0.0674, 0.0001,-0.0084,-0.0619, 3.0071, 1.4808,-2.9610
04-May-2019 22:30:11.126,-0.0888,-1.0235, 0.0836,-0.0924,-0.0199, 0.0108, 2.9933, 1.4847,-2.9454
04-May-2019 22:30:11.146,-0.0276,-1.0400, 0.0845,-0.0825,-0.0432,-0.0060, 2.9893, 1.4884,-2.9364
04-May-2019 22:30:11.165, 0.0250,-1.0053, 0.0735,-0.0025,-0.0205, 0.0082, 2.9878, 1.4921,-2.9296
04-May-2019 22:30:11.185, 0.0500,-0.9477, 0.0840, 0.0296, 0.0184,-0.0018, 2.9710, 1.4950,-2.9089
04-May-2019 22:30:11.204, 0.0840,-0.9605, 0.0593, 0.0522, 0.0518, 0.0101, 2.9269, 1.4966,-2.8598
04-May-2019 22:30:11.224, 0.0422,-0.9942, 0.0412, 0.0606, 0.0155,-0.0227, 2.8737, 1.5005,-2.8012
04-May-2019 22:30:11.243,-0.0005,-0.9983, 0.0002,-0.0184,-0.0032,-0.0258, 2.8146, 1.5050,-2.7391
04-May-2019 22:30:11.262, 0.0802,-0.9654,-0.0540, 0.0728, 0.0293,-0.2218, 2.7223, 1.5103,-2.6505
04-May-2019 22:30:11.282,-0.0620,-0.9447, 0.0631,-0.0315, 0.0530,-0.0067, 2.6000, 1.5144,-2.5472
04-May-2019 22:30:11.301,-0.0735,-0.9807, 0.0569,-0.1259, 0.0337, 0.0184, 2.4158, 1.5201,-2.3741
04-May-2019 22:30:11.321,-0.0076,-1.0088, 0.0735,-0.0759,-0.0009, 0.0480, 2.1842, 1.5252,-2.1449
04-May-2019 22:30:11.340,-0.0038,-1.0140, 0.0417,-0.0358,-0.0161, 0.0538, 1.9251, 1.5280,-1.8858
04-May-2019 22:30:11.360,-0.0652,-1.0206, 0.0202,-0.0677,-0.0152, 0.0198, 1.6748, 1.5274,-1.6347
04-May-2019 22:30:11.379,-0.1053,-1.0146, 0.0171,-0.1432,-0.0236, 0.0184, 1.4525, 1.5247,-1.4093
04-May-2019 22:30:11.399,-0.0123,-1.0432,-0.0123,-0.1206,-0.0202, 0.0251, 1.2765, 1.5224,-1.2271
04-May-2019 22:30:11.418, 0.1118,-1.1181,-0.0379,-0.0182,-0.0832,-0.0076, 1.1610, 1.5216,-1.1070
04-May-2019 22:30:11.438, 0.1895,-1.0427,-0.1038, 0.1420,-0.1187,-0.0585, 1.0344, 1.5214,-0.9789
04-May-2019 22:30:11.457, 0.1408,-1.0073,-0.0485, 0.1141,-0.0288,-0.0263, 0.9832, 1.5207,-0.9387
04-May-2019 22:30:11.477, 0.0445,-0.9938,-0.0186, 0.0647, 0.0013,-0.0149, 0.9461, 1.5189,-0.9145
04-May-2019 22:30:11.496, 0.0196,-0.9879,-0.0335,-0.0333, 0.0089, 0.0054, 0.9408, 1.5176,-0.9172
04-May-2019 22:30:11.516, 0.0444,-0.9924,-0.0231,-0.0084, 0.0147, 0.0057, 0.8873, 1.5159,-0.8713
04-May-2019 22:30:11.535, 0.1974,-1.1650,-0.0685, 0.1190,-0.1317,-0.0470, 0.8016, 1.5177,-0.7968
04-May-2019 22:30:11.555, 0.0206,-0.9725, 0.0277, 0.0772,-0.0764, 0.0608, 0.7578, 1.5240,-0.7691
04-May-2019 22:30:11.574,-0.0575,-0.9461, 0.0235,-0.0461, 0.0632, 0.0271, 0.7848, 1.5259,-0.8054
04-May-2019 22:30:11.594,-0.0695,-0.9280, 0.0614,-0.1006, 0.0710, 0.0925, 0.7853, 1.5268,-0.8099
04-May-2019 22:30:11.613, 0.0134,-0.7394,-0.0275,-0.0765, 0.1857, 0.1864, 0.7594, 1.5255,-0.7820
04-May-2019 22:30:11.632, 0.1763,-0.9378,-0.1197, 0.0883, 0.1874,-0.1018, 0.6985, 1.5200,-0.7142
04-May-2019 22:30:11.652, 0.1056,-1.1488, 0.0148, 0.1212,-0.0587,-0.0032, 0.6286, 1.5134,-0.6480
04-May-2019 22:30:11.671, 0.0865,-1.1963,-0.0032, 0.0435,-0.1975, 0.0753, 0.5990, 1.5084,-0.6204
04-May-2019 22:30:11.691, 0.2256,-1.0360,-0.1010, 0.0944,-0.1413,-0.0218, 0.6130, 1.5097,-0.6378
04-May-2019 22:30:11.710, 0.1003,-0.8585,-0.0129, 0.1548, 0.0822, 0.0494, 0.6433, 1.5152,-0.6857
04-May-2019 22:30:11.729, 0.0089,-0.8809,-0.0538, 0.0018, 0.1388,-0.0054, 0.6478, 1.5139,-0.7049
04-May-2019 22:30:11.749, 0.0245,-0.9538,-0.0406,-0.0255, 0.0819, 0.0023, 0.6182, 1.5102,-0.6803
04-May-2019 22:30:11.768, 0.0997,-0.9998,-0.0640, 0.0649,-0.0019,-0.0102, 0.5748, 1.5067,-0.6376
04-May-2019 22:30:11.788, 0.0866,-0.9771,-0.0706, 0.0659, 0.0072,-0.0027, 0.5310, 1.5045,-0.5940
04-May-2019 22:30:11.807, 0.0406,-1.0199,-0.0719, 0.0380, 0.0066,-0.0213, 0.4761, 1.4999,-0.5378
04-May-2019 22:30:11.827, 0.0399,-1.0289,-0.0638,-0.0092,-0.0536, 0.0283, 0.4430, 1.4925,-0.5004
04-May-2019 22:30:11.846, 0.1169,-1.0379,-0.0725, 0.0416,-0.0142, 0.0013, 0.4388, 1.4858,-0.4922
04-May-2019 22:30:11.865, 0.1969,-1.0379,-0.1104, 0.1331,-0.0307,-0.0111, 0.4405, 1.4823,-0.4950
04-May-2019 22:30:11.885, 0.1075,-1.1208,-0.0976, 0.1279,-0.1003,-0.0318, 0.4427, 1.4815,-0.5066
04-May-2019 22:30:11.904, 0.0230,-1.0874,-0.0865, 0.0286,-0.1131,-0.0158, 0.4476, 1.4848,-0.5234
04-May-2019 22:30:11.924, 0.0274,-1.0759,-0.1100,-0.0268,-0.1034,-0.0159, 0.4352, 1.4928,-0.5194
04-May-2019 22:30:11.943, 0.2109,-0.9679,-0.1254, 0.0842,-0.0217,-0.0610, 0.3976, 1.5032,-0.4826
04-May-2019 22:30:11.963, 0.1458,-0.9613,-0.0560, 0.1917, 0.0741,-0.0221, 0.3542, 1.5122,-0.4416
04-May-2019 22:30:11.982, 0.0386,-0.9500,-0.0410, 0.0694, 0.0205,-0.0025, 0.3096, 1.5236,-0.4008
04-May-2019 22:30:12.002,-0.0829,-1.1437,-0.0822,-0.0311,-0.0105,-0.0200, 0.2689, 1.5317,-0.3643
04-May-2019 22:30:12.021,-0.1353,-1.1476,-0.0216,-0.1136,-0.1817,-0.0052, 0.3376, 1.5369,-0.4386
04-May-2019 22:30:12.041,-0.0697,-1.0430,-0.0137,-0.1499,-0.0905, 0.0138, 0.5073, 1.5428,-0.6115
04-May-2019 22:30:12.060, 0.0289,-1.0239,-0.0311,-0.0148,-0.0455,-0.0163, 0.8343, 1.5489,-0.9332
04-May-2019 22:30:12.079, 0.0489,-0.9839, 0.0279, 0.0242,-0.0017, 0.0174, 1.3419, 1.5499,-1.4323
04-May-2019 22:30:12.099, 0.0442,-0.9655, 0.0159, 0.0406, 0.0386, 0.0219, 1.8235, 1.5484,-1.9043
04-May-2019 22:30:12.119, 0.0098,-0.9587, 0.0233, 0.0111, 0.0348, 0.0072, 2.1979, 1.5447,-2.2675
04-May-2019 22:30:12.138, 0.0265,-0.9535, 0.0204,-0.0145, 0.0507,-0.0022, 2.3122, 1.5410,-2.3732
04-May-2019 22:30:12.157, 0.1038,-1.0010, 0.0363, 0.0754, 0.0310, 0.0154, 2.3379, 1.5386,-2.3895
04-May-2019 22:30:12.177, 0.0952,-1.0520, 0.0669, 0.0690,-0.0264, 0.0249, 2.3689, 1.5384,-2.4145
04-May-2019 22:30:12.196, 0.0698,-1.0513, 0.0391, 0.0533,-0.0586, 0.0386, 2.4414, 1.5378,-2.4820
04-May-2019 22:30:12.216,-0.0273,-1.0423, 0.0141, 0.0140,-0.0384,-0.0093, 2.4777, 1.5362,-2.5159
04-May-2019 22:30:12.235,-0.1987,-1.0535, 0.0365,-0.1369,-0.0586, 0.0031, 2.5026, 1.5339,-2.5386
04-May-2019 22:30:12.255,-0.2678,-0.9298, 0.0001,-0.2533,-0.0148,-0.0131, 2.5771, 1.5293,-2.6061
04-May-2019 22:30:12.274,-0.3098,-0.8175, 0.0217,-0.3332, 0.1431,-0.0306, 2.7031, 1.5243,-2.7191
04-May-2019 22:30:12.294,-0.1084,-0.8587, 0.0486,-0.2243, 0.1762,-0.0143, 2.8165, 1.5217,-2.8152
04-May-2019 22:30:12.313,-0.0315,-0.8591, 0.0763,-0.0422, 0.1396, 0.0270, 2.9282, 1.5203,-2.9111
04-May-2019 22:30:12.333,-0.0470,-0.9192, 0.0748,-0.0269, 0.0973, 0.0244, 3.0520, 1.5190,-3.0250
04-May-2019 22:30:12.352,-0.1786,-0.9451, 0.0666,-0.0984, 0.0622, 0.0164,-3.0875, 1.5179, 3.1245
04-May-2019 22:30:12.371,-0.3208,-0.9642, 0.0697,-0.2572, 0.0278, 0.0145,-2.9871, 1.5180, 3.0315
04-May-2019 22:30:12.391,-0.2930,-0.9178, 0.0791,-0.3126, 0.0565, 0.0123,-2.9205, 1.5168, 2.9722
04-May-2019 22:30:12.411,-0.1959,-0.8845, 0.0694,-0.2302, 0.0975, 0.0228,-2.9499, 1.5145, 3.0066
04-May-2019 22:30:12.430,-0.0012,-0.8817, 0.0179,-0.0690, 0.1315,-0.0117,-3.0991, 1.5153,-3.1262
04-May-2019 22:30:12.449, 0.1469,-1.0003, 0.0048, 0.0929, 0.0588,-0.0172, 2.9420, 1.5182,-2.8914
04-May-2019 22:30:12.469, 0.0521,-1.0637,-0.0842, 0.1259,-0.0663,-0.0639, 2.7221, 1.5236,-2.6813
04-May-2019 22:30:12.488,-0.0566,-1.0294,-0.2766,-0.0745,-0.0300,-0.3040, 2.5633, 1.5381,-2.5122
04-May-2019 22:30:12.508, 0.0459,-1.1109, 0.0211,-0.0295,-0.0687,-0.1111, 2.2904, 1.5487,-2.2287
04-May-2019 22:30:12.528, 0.0105,-1.1786, 0.0893,-0.0002,-0.1501, 0.0541, 1.4404, 1.5544,-1.3653
04-May-2019 22:30:12.547, 0.0781,-1.1625, 0.0526,-0.0026,-0.1781, 0.1316, 0.9082, 1.5444,-0.8345
04-May-2019 22:30:12.566, 0.1230,-1.0525,-0.0606, 0.0952,-0.1085,-0.0025, 0.8083, 1.5344,-0.7430
04-May-2019 22:30:12.586, 0.0812,-0.9532,-0.0299, 0.0857,-0.0029,-0.0286, 0.8046, 1.5326,-0.7461
04-May-2019 22:30:12.605, 0.0073,-0.8981, 0.0143, 0.0075, 0.0779, 0.0236, 0.8024, 1.5334,-0.7493
04-May-2019 22:30:12.625,-0.0219,-0.9004,-0.0247,-0.0376, 0.1098, 0.0332, 0.7332, 1.5301,-0.6873
04-May-2019 22:30:12.644,-0.0180,-0.9483,-0.0602,-0.0520, 0.0746,-0.0070, 0.6440, 1.5242,-0.6072
04-May-2019 22:30:12.663, 0.0091,-0.9825,-0.0772,-0.0314, 0.0301,-0.0300, 0.5890, 1.5193,-0.5585
04-May-2019 22:30:12.684, 0.0417,-1.0194,-0.0809, 0.0115,-0.0213,-0.0281, 0.5202, 1.5099,-0.4982
04-May-2019 22:30:12.702, 0.0885,-1.0517,-0.1068, 0.0345,-0.0380,-0.0307, 0.4953, 1.5041,-0.4762
04-May-2019 22:30:12.722, 0.1079,-1.0662,-0.1102, 0.0664,-0.0673,-0.0557, 0.4820, 1.4972,-0.4656
04-May-2019 22:30:12.741, 0.1218,-1.0415,-0.0566, 0.0771,-0.0625,-0.0112, 0.4873, 1.4896,-0.4737
04-May-2019 22:30:12.761, 0.1288,-0.9734,-0.0626, 0.0824,-0.0121, 0.0337, 0.5109, 1.4799,-0.4975
04-May-2019 22:30:12.781, 0.1405,-0.9046,-0.1020, 0.0830, 0.0613, 0.0045, 0.5420, 1.4691,-0.5253
04-May-2019 22:30:12.800, 0.1468,-0.8757,-0.0814, 0.0831, 0.1120,-0.0095, 0.5676, 1.4584,-0.5435
04-May-2019 22:30:12.819, 0.1677,-0.9162,-0.0361, 0.0903, 0.1046, 0.0442, 0.5855, 1.4484,-0.5505
04-May-2019 22:30:12.839, 0.1864,-1.0150,-0.0223, 0.1042, 0.0307, 0.0835, 0.5992, 1.4374,-0.5515
04-May-2019 22:30:12.858, 0.1703,-1.1215,-0.0268, 0.1007,-0.0831, 0.0963, 0.6061, 1.4281,-0.5491
04-May-2019 22:30:12.878, 0.1219,-1.1554,-0.0395, 0.0595,-0.1647, 0.0942, 0.6161, 1.4168,-0.5483
04-May-2019 22:30:12.897, 0.0906,-1.1033,-0.0699, 0.0053,-0.1490, 0.0783, 0.6326, 1.4087,-0.5547
04-May-2019 22:30:12.916, 0.0920,-1.0402,-0.0615,-0.0126,-0.0839, 0.0682, 0.6510, 1.4026,-0.5623
04-May-2019 22:30:12.936, 0.0862,-1.0191,-0.0823,-0.0179,-0.0419, 0.0620, 0.6672, 1.3969,-0.5689
04-May-2019 22:30:12.955, 0.1042,-1.0009,-0.0828,-0.0198,-0.0245, 0.0530, 0.6834, 1.3930,-0.5773
04-May-2019 22:30:12.975, 0.1181,-1.0003,-0.0755,-0.0006,-0.0127, 0.0563, 0.7017, 1.3911,-0.5893
04-May-2019 22:30:12.994, 0.0856,-1.0338,-0.0782,-0.0113,-0.0308, 0.0598, 0.7159, 1.3899,-0.6020
04-May-2019 22:30:13.014, 0.0401,-1.0580,-0.0748,-0.0602,-0.0688, 0.0551, 0.7266, 1.3903,-0.6162
04-May-2019 22:30:13.034, 0.0555,-1.0395,-0.0697,-0.0637,-0.0553, 0.0612, 0.7387, 1.3929,-0.6327
04-May-2019 22:30:13.053, 0.0950,-0.9857,-0.0647,-0.0431,-0.0314, 0.0649, 0.7481, 1.3966,-0.6462
04-May-2019 22:30:13.072, 0.1576,-0.9261,-0.0715, 0.0086, 0.0322, 0.0495, 0.7560, 1.4030,-0.6611
04-May-2019 22:30:13.092, 0.2343,-0.8972,-0.0740, 0.0891, 0.0810, 0.0446, 0.7549, 1.4095,-0.6669
04-May-2019 22:30:13.111, 0.2735,-0.8934,-0.0824, 0.1568, 0.0937, 0.0337, 0.7427, 1.4156,-0.6606
04-May-2019 22:30:13.130, 0.2710,-0.9059,-0.0847, 0.1760, 0.0931, 0.0297, 0.7205, 1.4205,-0.6442
04-May-2019 22:30:13.150, 0.2961,-0.9705,-0.0951, 0.1840, 0.0578, 0.0240, 0.6937, 1.4236,-0.6213
04-May-2019 22:30:13.169, 0.2678,-1.0198,-0.0937, 0.1951,-0.0153, 0.0147, 0.6714, 1.4233,-0.6011
04-May-2019 22:30:13.189, 0.2062,-1.0368,-0.0674, 0.1517,-0.0446, 0.0330, 0.6513, 1.4228,-0.5851
04-May-2019 22:30:13.208, 0.1771,-1.0062,-0.0694, 0.0886,-0.0172, 0.0487, 0.6429, 1.4227,-0.5789
04-May-2019 22:30:13.228, 0.2041,-0.9451,-0.0872, 0.0951, 0.0118, 0.0354, 0.6432, 1.4228,-0.5780
04-May-2019 22:30:13.247, 0.2399,-0.9139,-0.0741, 0.1425, 0.0688, 0.0368, 0.6463, 1.4240,-0.5794
04-May-2019 22:30:13.267, 0.2226,-0.8919,-0.0636, 0.1506, 0.0904, 0.0482, 0.6455, 1.4249,-0.5786
04-May-2019 22:30:13.286, 0.1804,-0.9484,-0.0743, 0.1130, 0.0810, 0.0499, 0.6319, 1.4263,-0.5675
04-May-2019 22:30:13.305, 0.1753,-1.0597,-0.1094, 0.0959,-0.0127, 0.0280, 0.6086, 1.4269,-0.5484
04-May-2019 22:30:13.325, 0.1264,-1.1386,-0.1224, 0.0784,-0.1195,-0.0047, 0.5861, 1.4260,-0.5315
04-May-2019 22:30:13.344, 0.0689,-1.1290,-0.0995, 0.0158,-0.1548, 0.0096, 0.5695, 1.4247,-0.5194
04-May-2019 22:30:13.364, 0.0676,-1.0597,-0.0838,-0.0155,-0.1102, 0.0338, 0.5615, 1.4271,-0.5122
04-May-2019 22:30:13.384, 0.0774,-0.9725,-0.0852, 0.0042, 0.0180, 0.0310, 0.5623, 1.4330,-0.5113
04-May-2019 22:30:13.403, 0.0324,-0.9026,-0.1107,-0.0058, 0.0614, 0.0176, 0.5644, 1.4374,-0.5121
04-May-2019 22:30:13.422,-0.0190,-0.9106,-0.1284,-0.0618, 0.0940,-0.0138, 0.5568, 1.4395,-0.5043
04-May-2019 22:30:13.442,-0.0737,-0.9774,-0.0961,-0.1217, 0.0522, 0.0005, 0.5234, 1.4373,-0.4723
04-May-2019 22:30:13.461,-0.0627,-1.0514,-0.0809,-0.1342,-0.0265, 0.0381, 0.4753, 1.4343,-0.4273
04-May-2019 22:30:13.481,-0.0383,-1.0994,-0.1213,-0.1044,-0.0890, 0.0313, 0.4302, 1.4340,-0.3854
04-May-2019 22:30:13.501,-0.0303,-1.1198,-0.1567,-0.0846,-0.1241,-0.0191, 0.3871, 1.4351,-0.3448
04-May-2019 22:30:13.520,-0.0566,-1.1088,-0.1770,-0.0854,-0.1255,-0.0412, 0.3457, 1.4357,-0.3044
04-May-2019 22:30:13.539,-0.0868,-1.0809,-0.1631,-0.1153,-0.1063,-0.0486, 0.3054, 1.4369,-0.2637
04-May-2019 22:30:13.559,-0.0939,-1.0316,-0.1143,-0.1243,-0.0637,-0.0134, 0.2574, 1.4378,-0.2149
04-May-2019 22:30:13.578,-0.1100,-0.9938,-0.1187,-0.1271,-0.0208, 0.0208, 0.2166, 1.4381,-0.1743
04-May-2019 22:30:13.597,-0.1308,-0.9376,-0.1477,-0.1448, 0.0180,-0.0064, 0.1610, 1.4393,-0.1199
04-May-2019 22:30:13.617,-0.1213,-0.8757,-0.1446,-0.1444, 0.0871,-0.0184, 0.1046, 1.4405,-0.0662
04-May-2019 22:30:13.636,-0.0892,-0.8534,-0.1134,-0.1113, 0.1357,-0.0048, 0.0480, 1.4397,-0.0129
04-May-2019 22:30:13.656,-0.0652,-0.8842,-0.0903,-0.0744, 0.1265, 0.0364,-0.0015, 1.4379, 0.0345
04-May-2019 22:30:13.676,-0.0596,-0.9201,-0.1185,-0.0550, 0.0848, 0.0354,-0.0412, 1.4369, 0.0746
04-May-2019 22:30:13.695,-0.0559,-0.9340,-0.1449,-0.0462, 0.0628,-0.0022,-0.0713, 1.4362, 0.1043
04-May-2019 22:30:13.714,-0.0655,-0.9454,-0.1475,-0.0506, 0.0528,-0.0139,-0.0886, 1.4355, 0.1202
04-May-2019 22:30:13.734,-0.0565,-0.9659,-0.1387,-0.0476, 0.0385,-0.0079,-0.0931, 1.4346, 0.1239
04-May-2019 22:30:13.754,-0.0489,-0.9848,-0.1399,-0.0370, 0.0057,-0.0028,-0.0865, 1.4327, 0.1174
04-May-2019 22:30:13.773,-0.0329,-1.0045,-0.1490,-0.0278,-0.0026, 0.0001,-0.0756, 1.4310, 0.1073
04-May-2019 22:30:13.792,-0.0316,-1.0138,-0.1033,-0.0249,-0.0204, 0.0061,-0.0571, 1.4294, 0.0903
04-May-2019 22:30:13.811,-0.0108,-1.0082,-0.1008,-0.0156,-0.0250, 0.0438,-0.0301, 1.4280, 0.0658
04-May-2019 22:30:13.831,-0.0403,-0.9910,-0.0938,-0.0196,-0.0118, 0.0466, 0.0059, 1.4274, 0.0318
04-May-2019 22:30:13.850,-0.0819,-0.9790,-0.1147,-0.0675, 0.0066, 0.0349, 0.0448, 1.4279,-0.0057
04-May-2019 22:30:13.870,-0.1203,-0.9877,-0.1172,-0.1151, 0.0093, 0.0290, 0.0822, 1.4283,-0.0442
04-May-2019 22:30:13.889,-0.1285,-1.0043,-0.1514,-0.1472,-0.0086, 0.0107, 0.1159, 1.4283,-0.0816
04-May-2019 22:30:13.908,-0.0884,-0.9945,-0.1719,-0.1335,-0.0123,-0.0323, 0.1437, 1.4282,-0.1139
04-May-2019 22:30:13.928,-0.0423,-0.9707,-0.1513,-0.0653, 0.0191,-0.0110, 0.1623, 1.4282,-0.1367
04-May-2019 22:30:13.947, 0.0084,-0.9711,-0.1266,-0.0390, 0.0201,-0.0002, 0.1732, 1.4275,-0.1509
04-May-2019 22:30:13.967, 0.0749,-0.9836,-0.1188, 0.0082, 0.0139, 0.0269, 0.1865, 1.4258,-0.1690
04-May-2019 22:30:13.986, 0.0980,-1.0265,-0.1551, 0.0673,-0.0104, 0.0094, 0.2020, 1.4241,-0.1899
04-May-2019 22:30:14.006, 0.0694,-1.0783,-0.1944, 0.0552,-0.0691,-0.0385, 0.2193, 1.4231,-0.2138
04-May-2019 22:30:14.025, 0.0273,-1.0758,-0.1355, 0.0104,-0.1003,-0.0287, 0.2295, 1.4223,-0.2317
04-May-2019 22:30:14.045, 0.0187,-1.0391,-0.1181,-0.0151,-0.0710, 0.0275, 0.2312, 1.4222,-0.2403
04-May-2019 22:30:14.064, 0.0321,-0.9856,-0.1350,-0.0102,-0.0227, 0.0180, 0.2302, 1.4249,-0.2437
04-May-2019 22:30:14.084, 0.0608,-0.9649,-0.1572, 0.0139, 0.0216,-0.0114, 0.2272, 1.4284,-0.2439
04-May-2019 22:30:14.104, 0.0721,-0.9720,-0.1541, 0.0414, 0.0182,-0.0176, 0.2207, 1.4305,-0.2400
04-May-2019 22:30:14.124, 0.0628,-0.9853,-0.1409, 0.0334, 0.0050,-0.0049, 0.2132, 1.4313,-0.2335
04-May-2019 22:30:14.142, 0.0451,-0.9746,-0.1266, 0.0243, 0.0087, 0.0043, 0.2074, 1.4316,-0.2278
04-May-2019 22:30:14.161, 0.0356,-0.9754,-0.1246, 0.0136, 0.0183, 0.0117, 0.1999, 1.4328,-0.2200
04-May-2019 22:30:14.181, 0.0262,-0.9993,-0.1451, 0.0039, 0.0065,-0.0031, 0.1933, 1.4340,-0.2128
04-May-2019 22:30:14.201, 0.0343,-1.0124,-0.1535,-0.0007,-0.0217,-0.0149, 0.1868, 1.4343,-0.2042
04-May-2019 22:30:14.220, 0.0466,-0.9949,-0.1409, 0.0162,-0.0149,-0.0181, 0.1805, 1.4342,-0.1946
04-May-2019 22:30:14.239, 0.0513,-0.9618,-0.1255, 0.0268, 0.0103, 0.0003, 0.1768, 1.4352,-0.1863
04-May-2019 22:30:14.259, 0.0518,-0.9499,-0.1261, 0.0288, 0.0402, 0.0075, 0.1764, 1.4367,-0.1804
04-May-2019 22:30:14.278, 0.0389,-0.9734,-0.1231, 0.0218, 0.0342, 0.0049, 0.1761, 1.4373,-0.1750
04-May-2019 22:30:14.298, 0.0274,-1.0072,-0.1081, 0.0092, 0.0003, 0.0138, 0.1742, 1.4370,-0.1696
04-May-2019 22:30:14.318, 0.0291,-1.0250,-0.0995, 0.0019,-0.0276, 0.0317, 0.1696, 1.4363,-0.1604
04-May-2019 22:30:14.337, 0.0420,-1.0150,-0.1120, 0.0141,-0.0319, 0.0256, 0.1642, 1.4361,-0.1504
04-May-2019 22:30:14.356, 0.0422,-1.0019,-0.1175, 0.0227,-0.0161, 0.0163, 0.1593, 1.4371,-0.1409
04-May-2019 22:30:14.376, 0.0195,-0.9968,-0.1226, 0.0112,-0.0031, 0.0099, 0.1540, 1.4382,-0.1309
04-May-2019 22:30:14.395, 0.0043,-1.0012,-0.1206,-0.0092,-0.0052, 0.0113, 0.1466, 1.4390,-0.1194
04-May-2019 22:30:14.414,-0.0143,-1.0076,-0.1180,-0.0234,-0.0128, 0.0093, 0.1384, 1.4395,-0.1087
04-May-2019 22:30:14.434,-0.0276,-1.0084,-0.1099,-0.0377,-0.0173, 0.0186, 0.1302, 1.4400,-0.0995
04-May-2019 22:30:14.454,-0.0258,-1.0094,-0.1081,-0.0446,-0.0174, 0.0170, 0.1221, 1.4407,-0.0913
04-May-2019 22:30:14.473,-0.0064,-1.0090,-0.1175,-0.0210,-0.0174, 0.0103, 0.1136, 1.4418,-0.0836
04-May-2019 22:30:14.492, 0.0087,-0.9923,-0.1297,-0.0108,-0.0099, 0.0049, 0.1084, 1.4432,-0.0794
04-May-2019 22:30:14.512, 0.0080,-0.9811,-0.1448,-0.0040, 0.0064,-0.0123, 0.1040, 1.4460,-0.0769
04-May-2019 22:30:14.531,-0.0089,-0.9696,-0.1500,-0.0124, 0.0172,-0.0269, 0.1007, 1.4483,-0.0767
04-May-2019 22:30:14.551,-0.0180,-0.9711,-0.1528,-0.0295, 0.0244,-0.0237, 0.0955, 1.4494,-0.0751
04-May-2019 22:30:14.570,-0.0165,-0.9843,-0.1627,-0.0262, 0.0162,-0.0412, 0.0859, 1.4500,-0.0697
04-May-2019 22:30:14.590,-0.0117,-0.9855,-0.1519,-0.0217, 0.0061,-0.0371, 0.0729, 1.4500,-0.0613
04-May-2019 22:30:14.610,-0.0123,-0.9814,-0.1454,-0.0160, 0.0090,-0.0278, 0.0608, 1.4491,-0.0547
04-May-2019 22:30:14.629,-0.0396,-0.9737,-0.1506,-0.0303, 0.0126,-0.0232, 0.0519, 1.4487,-0.0520
04-May-2019 22:30:14.649,-0.0560,-0.9645,-0.1655,-0.0614, 0.0281,-0.0443, 0.0445, 1.4492,-0.0510
04-May-2019 22:30:14.668,-0.0583,-0.9572,-0.1533,-0.0637, 0.0362,-0.0392, 0.0400, 1.4496,-0.0519
04-May-2019 22:30:14.688,-0.0475,-0.9805,-0.1396,-0.0596, 0.0270,-0.0236, 0.0359, 1.4490,-0.0555
04-May-2019 22:30:14.707,-0.0184,-1.0188,-0.1451,-0.0380,-0.0062,-0.0198, 0.0328, 1.4473,-0.0598
04-May-2019 22:30:14.726, 0.0066,-1.0388,-0.1376,-0.0062,-0.0413,-0.0146, 0.0281, 1.4456,-0.0620
04-May-2019 22:30:14.745, 0.0064,-1.0312,-0.1405, 0.0059,-0.0430,-0.0106, 0.0215, 1.4444,-0.0622
04-May-2019 22:30:14.765,-0.0190,-1.0080,-0.1593,-0.0010,-0.0305,-0.0257, 0.0154, 1.4440,-0.0630
04-May-2019 22:30:14.785,-0.0346,-0.9965,-0.1715,-0.0330,-0.0057,-0.0397, 0.0099, 1.4440,-0.0646
04-May-2019 22:30:14.804, 0.0013,-1.0245,-0.1764,-0.0220,-0.0148,-0.0503,-0.0006, 1.4442,-0.0610
04-May-2019 22:30:14.823, 0.0460,-1.0425,-0.2023, 0.0475,-0.0504,-0.0770,-0.0117, 1.4452,-0.0560
04-May-2019 22:30:14.843, 0.0554,-0.9739,-0.2205, 0.0667,-0.0364,-0.0928,-0.0162, 1.4475,-0.0539
04-May-2019 22:30:14.862,-0.0108,-0.8987,-0.2238, 0.0226, 0.0693,-0.0977,-0.0172, 1.4513,-0.0531
04-May-2019 22:30:14.882,-0.0813,-0.9244,-0.2669,-0.0532, 0.0936,-0.1279,-0.0061, 1.4517,-0.0624
04-May-2019 22:30:14.901,-0.0773,-0.9833,-0.2815,-0.0872, 0.0356,-0.1569, 0.0069, 1.4492,-0.0734
04-May-2019 22:30:14.921,-0.0269,-1.0334,-0.2747,-0.0546,-0.0174,-0.1592, 0.0119, 1.4476,-0.0739
04-May-2019 22:30:14.940, 0.0006,-1.0474,-0.2294,-0.0100,-0.0561,-0.1292, 0.0093, 1.4473,-0.0670
04-May-2019 22:30:14.959,-0.0023,-1.0251,-0.2142, 0.0015,-0.0450,-0.0974, 0.0060, 1.4489,-0.0604
04-May-2019 22:30:14.979,-0.0192,-1.0219,-0.2253,-0.0131,-0.0254,-0.0978, 0.0025, 1.4531,-0.0530
04-May-2019 22:30:14.999,-0.0191,-1.0474,-0.2534,-0.0191,-0.0399,-0.1276, 0.0022, 1.4586,-0.0465
04-May-2019 22:30:15.018,-0.0347,-1.0485,-0.2665,-0.0261,-0.0579,-0.1539, 0.0069, 1.4634,-0.0457
04-May-2019 22:30:15.037,-0.0684,-1.0208,-0.2830,-0.0509,-0.0429,-0.1789, 0.0210, 1.4723,-0.0523
04-May-2019 22:30:15.057,-0.0927,-0.9857,-0.2838,-0.0870,-0.0041,-0.1975, 0.0486, 1.4838,-0.0720
04-May-2019 22:30:15.076,-0.1191,-0.9649,-0.2645,-0.1133, 0.0234,-0.2034, 0.0946, 1.4956,-0.1116
04-May-2019 22:30:15.096,-0.1228,-0.9463,-0.2569,-0.1322, 0.0428,-0.1946, 0.1661, 1.5077,-0.1779
04-May-2019 22:30:15.115,-0.1063,-0.9193,-0.2345,-0.1299, 0.0640,-0.1997, 0.2795, 1.5204,-0.2873
04-May-2019 22:30:15.135,-0.0785,-0.8920,-0.2238,-0.1145, 0.0960,-0.1940, 0.4655, 1.5318,-0.4714
04-May-2019 22:30:15.157,-0.0469,-0.8819,-0.2152,-0.0825, 0.1124,-0.1924, 0.7668, 1.5401,-0.7717
04-May-2019 22:30:15.173,-0.0383,-0.8730,-0.2330,-0.0675, 0.1224,-0.2132, 1.2018, 1.5439,-1.2047
04-May-2019 22:30:15.193,-0.0244,-0.8546,-0.2147,-0.0531, 0.1450,-0.2165, 1.6332, 1.5420,-1.6346
04-May-2019 22:30:15.212,-0.0082,-0.8469,-0.1942,-0.0481, 0.1505,-0.2098, 1.8474, 1.5378,-1.8484
04-May-2019 22:30:15.232,-0.0013,-0.8555,-0.1676,-0.0367, 0.1488,-0.1989, 1.9955, 1.5309,-1.9959
04-May-2019 22:30:15.251,-0.0207,-0.8554,-0.1684,-0.0514, 0.1420,-0.1842, 2.0742, 1.5238,-2.0735
04-May-2019 22:30:15.271,-0.0403,-0.8452,-0.1950,-0.0779, 0.1506,-0.2162, 2.1233, 1.5169,-2.1211
04-May-2019 22:30:15.290,-0.0432,-0.8561,-0.1700,-0.0972, 0.1521,-0.2183, 2.1376, 1.5112,-2.1349
04-May-2019 22:30:15.310,-0.0280,-0.8996,-0.1513,-0.0915, 0.1298,-0.1886, 2.1162, 1.5071,-2.1129
04-May-2019 22:30:15.329,-0.0061,-0.9796,-0.1498,-0.0770, 0.0619,-0.1831, 2.0664, 1.5045,-2.0612
04-May-2019 22:30:15.348,-0.0067,-1.0604,-0.1007,-0.0657,-0.0218,-0.1606, 2.0059, 1.5029,-1.9990
04-May-2019 22:30:15.368,-0.0209,-1.1345,-0.0643,-0.0850,-0.1369,-0.0894, 1.9444, 1.5018,-1.9375
04-May-2019 22:30:15.387, 0.0084,-1.1978,-0.0819,-0.0826,-0.1625,-0.0847, 1.9006, 1.5013,-1.8945
04-May-2019 22:30:15.407, 0.1495,-1.3315,-0.0944,-0.0021,-0.2525,-0.1173, 1.8197, 1.5018,-1.8103
04-May-2019 22:30:15.426, 0.3022,-1.4821, 0.0386, 0.1669,-0.4164,-0.0615, 1.6644, 1.5031,-1.6455
04-May-2019 22:30:15.446, 0.2738,-1.4886, 0.2518, 0.2523,-0.5226, 0.1656, 1.5072, 1.5021,-1.4802
04-May-2019 22:30:15.465, 0.1700,-1.2175, 0.2091, 0.1363,-0.3806, 0.2791, 1.4446, 1.4992,-1.4113
04-May-2019 22:30:15.485, 0.1492,-0.9788,-0.0306, 0.0826,-0.0786, 0.1069, 1.3983, 1.4964,-1.3538
04-May-2019 22:30:15.504, 0.1119,-0.9271,-0.1560, 0.0654, 0.0674,-0.1063, 1.3097, 1.4954,-1.2540
04-May-2019 22:30:15.524,-0.0081,-1.0123, 0.0344,-0.0241, 0.0444,-0.0578, 1.1781, 1.4941,-1.1198
04-May-2019 22:30:15.544,-0.0651,-1.2372, 0.2528,-0.1360,-0.2405, 0.2926, 1.0589, 1.4895,-1.0054
04-May-2019 22:30:15.562, 0.0266,-1.2603, 0.2886,-0.1031,-0.2905, 0.3424, 1.0175, 1.4862,-0.9680
04-May-2019 22:30:15.582, 0.1770,-1.0459, 0.1266, 0.0337,-0.1702, 0.2680, 1.0314, 1.4851,-0.9814
04-May-2019 22:30:15.602, 0.2471,-0.8128, 0.0031, 0.1492, 0.0723, 0.0848, 1.1115, 1.4877,-1.0565
04-May-2019 22:30:15.621, 0.2260,-0.6392, 0.0052, 0.1725, 0.2798, 0.0154, 1.1991, 1.4903,-1.1445
04-May-2019 22:30:15.640, 0.1543,-0.5667, 0.0393, 0.1146, 0.4103, 0.0577, 1.2708, 1.4906,-1.2225
04-May-2019 22:30:15.660, 0.1189,-0.6223,-0.0048, 0.0500, 0.4133, 0.0475, 1.3184, 1.4895,-1.2749
04-May-2019 22:30:15.679, 0.1500,-0.7661,-0.0500, 0.0483, 0.3033,-0.0172, 1.3081, 1.4897,-1.2671
04-May-2019 22:30:15.699, 0.1991,-0.9245,-0.0903, 0.1017, 0.1551,-0.0467, 1.2472, 1.4920,-1.2075
04-May-2019 22:30:15.718, 0.2073,-1.0567,-0.1119, 0.1414,-0.0024,-0.0845, 1.1906, 1.4959,-1.1532
04-May-2019 22:30:15.738, 0.1670,-1.0684,-0.0530, 0.1271,-0.0802,-0.0543, 1.1702, 1.5000,-1.1351
04-May-2019 22:30:15.757, 0.1358,-0.9978,-0.0409, 0.0886,-0.0406,-0.0088, 1.1739, 1.5065,-1.1389
04-May-2019 22:30:15.777, 0.1292,-0.9128,-0.0495, 0.0736, 0.0435,-0.0275, 1.2055, 1.5139,-1.1669
04-May-2019 22:30:15.796, 0.1867,-0.8771,-0.0564, 0.1051, 0.1109,-0.0354, 1.2226, 1.5210,-1.1786
04-May-2019 22:30:15.815, 0.2650,-0.9057,-0.0477, 0.1856, 0.1111,-0.0356, 1.1935, 1.5274,-1.1403
04-May-2019 22:30:15.835, 0.3124,-0.9457,-0.0851, 0.2635, 0.0688,-0.0436, 1.0979, 1.5322,-1.0308
04-May-2019 22:30:15.855, 0.2771,-0.9402,-0.1659, 0.2748, 0.0486,-0.1046, 0.9201, 1.5338,-0.8367
04-May-2019 22:30:15.874, 0.2005,-0.9017,-0.2047, 0.2159, 0.0799,-0.1620, 0.6911, 1.5308,-0.5900
04-May-2019 22:30:15.893, 0.0671,-0.8981,-0.2390, 0.1189, 0.1059,-0.1765, 0.4907, 1.5226,-0.3730
04-May-2019 22:30:15.913,-0.1152,-0.9454,-0.3039,-0.0417, 0.0788,-0.2240, 0.3757, 1.5129,-0.2497
04-May-2019 22:30:15.932,-0.2144,-1.0634,-0.3783,-0.2043, 0.0084,-0.2714, 0.2616, 1.4943,-0.1316
04-May-2019 22:30:15.952,-0.1468,-1.3062,-0.2124,-0.2159,-0.1705,-0.2334, 0.1931, 1.4697,-0.0613
04-May-2019 22:30:15.971, 0.0139,-1.5859,-0.0263,-0.0889,-0.4693, 0.0372, 0.1700, 1.4461,-0.0199
04-May-2019 22:30:15.991,-0.0052,-1.6604, 0.0085, 0.0205,-0.6735, 0.1256, 0.1716, 1.4317,-0.0007
04-May-2019 22:30:16.010,-0.2327,-1.4710, 0.0650,-0.1565,-0.5948, 0.2004, 0.1781, 1.4241,-0.0050
04-May-2019 22:30:16.029,-0.2280,-1.2487,-0.0680,-0.2948,-0.3741, 0.1557, 0.1899, 1.4184,-0.0189
04-May-2019 22:30:16.049,-0.0934,-1.0565,-0.0835,-0.1886,-0.1542, 0.0528, 0.1875, 1.4151,-0.0180
04-May-2019 22:30:16.068, 0.0320,-0.9312, 0.0817,-0.0532, 0.0016, 0.1436, 0.1612, 1.4162, 0.0051
04-May-2019 22:30:16.088, 0.1045,-0.8395, 0.1379, 0.0856, 0.1493, 0.2862, 0.1266, 1.4207, 0.0358
04-May-2019 22:30:16.107, 0.0561,-0.7596, 0.0854, 0.0844, 0.1925, 0.2593, 0.1008, 1.4252, 0.0568
04-May-2019 22:30:16.128,-0.0738,-0.6892, 0.0736,-0.0109, 0.2660, 0.2131, 0.0743, 1.4346, 0.0754
04-May-2019 22:30:16.146,-0.1795,-0.6625,-0.0124,-0.1468, 0.3245, 0.1639, 0.0544, 1.4455, 0.0901
04-May-2019 22:30:16.165,-0.1740,-0.6803,-0.0355,-0.1978, 0.3228, 0.0741, 0.0292, 1.4549, 0.1124
04-May-2019 22:30:16.185,-0.0449,-0.7359,-0.0532,-0.1235, 0.2973, 0.0827, 0.0108, 1.4606, 0.1342
04-May-2019 22:30:16.204, 0.0282,-0.9022,-0.0872, 0.0080, 0.1871, 0.0207, 0.0189, 1.4646, 0.1296
04-May-2019 22:30:16.224, 0.0030,-1.0717,-0.0805, 0.0189, 0.0003, 0.0195, 0.0599, 1.4692, 0.0887
04-May-2019 22:30:16.243,-0.0738,-1.1685,-0.0851,-0.0447,-0.1363, 0.0139, 0.1249, 1.4751, 0.0208
04-May-2019 22:30:16.263,-0.1313,-1.1568,-0.1624,-0.1230,-0.1771,-0.0286, 0.1822, 1.4800,-0.0423
04-May-2019 22:30:16.282,-0.1545,-1.0797,-0.1479,-0.1756,-0.1282,-0.0856, 0.2613, 1.4865,-0.1319
04-May-2019 22:30:16.302,-0.0888,-0.9851,-0.1447,-0.1576,-0.0397,-0.0667, 0.3507, 1.4927,-0.2312
04-May-2019 22:30:16.321, 0.0025,-0.8987,-0.1743,-0.0681, 0.0623,-0.0891, 0.4545, 1.4983,-0.3457
04-May-2019 22:30:16.341, 0.0078,-0.8268,-0.2289,-0.0285, 0.1336,-0.1517, 0.5571, 1.5030,-0.4614
04-May-2019 22:30:16.360,-0.0112,-0.7770,-0.2303,-0.0368, 0.1990,-0.1793, 0.6550, 1.5067,-0.5733
04-May-2019 22:30:16.380,-0.0463,-0.7692,-0.2354,-0.0717, 0.2309,-0.1879, 0.7419, 1.5079,-0.6737
04-May-2019 22:30:16.399,-0.0551,-0.8070,-0.1932,-0.1028, 0.2140,-0.1768, 0.8151, 1.5060,-0.7606
04-May-2019 22:30:16.419,-0.0222,-0.8471,-0.1862,-0.0957, 0.1711,-0.1356, 0.8694, 1.5021,-0.8283
04-May-2019 22:30:16.439,-0.0028,-0.8565,-0.1900,-0.0643, 0.1400,-0.1464, 0.9026, 1.4967,-0.8755
04-May-2019 22:30:16.458,-0.0283,-0.8263,-0.2226,-0.0765, 0.1495,-0.1422, 0.9162, 1.4921,-0.9004
04-May-2019 22:30:16.477,-0.0358,-0.8277,-0.2882,-0.1051, 0.1828,-0.2200, 0.8977, 1.4828,-0.8988
04-May-2019 22:30:16.496, 0.0790,-0.9442,-0.1409,-0.0814, 0.1258,-0.1470, 0.8377, 1.4693,-0.8554
04-May-2019 22:30:16.517, 0.3580,-1.2424,-0.0970, 0.1360,-0.0808,-0.0191, 0.7566, 1.4523,-0.7797
04-May-2019 22:30:16.535, 0.5414,-1.5207, 0.0409, 0.3923,-0.4173, 0.0401, 0.6926, 1.4368,-0.7161
04-May-2019 22:30:16.555, 0.4236,-1.5254, 0.2796, 0.4243,-0.5773, 0.2952, 0.6699, 1.4268,-0.6938
04-May-2019 22:30:16.574, 0.2803,-1.3943, 0.2392, 0.2417,-0.4608, 0.4087, 0.6784, 1.4179,-0.6982
04-May-2019 22:30:16.594, 0.1519,-1.3825, 0.1824, 0.1205,-0.3856, 0.3157, 0.7036, 1.4138,-0.7161
04-May-2019 22:30:16.613, 0.0102,-1.4802, 0.2551,-0.0209,-0.4397, 0.3188, 0.7199, 1.4172,-0.7282
04-May-2019 22:30:16.633,-0.1308,-1.4407, 0.2735,-0.2280,-0.4516, 0.3834, 0.7247, 1.4236,-0.7360
04-May-2019 22:30:16.652,-0.1595,-1.2860, 0.1427,-0.2599,-0.3796, 0.3271, 0.7355, 1.4280,-0.7544
04-May-2019 22:30:16.672,-0.0678,-1.0752,-0.0209,-0.2157,-0.2008, 0.1483, 0.7744, 1.4312,-0.8060
04-May-2019 22:30:16.691, 0.0907,-0.8098,-0.0242,-0.0969, 0.0486, 0.0601, 0.8331, 1.4335,-0.8727
04-May-2019 22:30:16.711, 0.2590,-0.6265,-0.0362, 0.0848, 0.2888, 0.0640, 0.8896, 1.4366,-0.9313
04-May-2019 22:30:16.730, 0.3198,-0.5586, 0.0052, 0.1936, 0.4124, 0.0483, 0.9259, 1.4375,-0.9737
04-May-2019 22:30:16.749, 0.2722,-0.6420, 0.0656, 0.1957, 0.4086, 0.1241, 0.9181, 1.4332,-0.9741
04-May-2019 22:30:16.769, 0.2060,-0.8042, 0.1005, 0.1246, 0.2664, 0.1762, 0.8863, 1.4262,-0.9465
04-May-2019 22:30:16.788, 0.1720,-0.9350, 0.0691, 0.0712, 0.1130, 0.1985, 0.8651, 1.4218,-0.9256
04-May-2019 22:30:16.808, 0.1524,-1.0225,-0.0164, 0.0398,-0.0338, 0.0821, 0.8524, 1.4207,-0.9127
04-May-2019 22:30:16.827, 0.1365,-1.0467,-0.0156, 0.0315,-0.0493, 0.0754, 0.8416, 1.4214,-0.9028
04-May-2019 22:30:16.847, 0.1326,-1.0528, 0.0133, 0.0255,-0.0641, 0.1020, 0.8271, 1.4237,-0.8895
04-May-2019 22:30:16.866, 0.1180,-1.0261, 0.0037, 0.0251,-0.0540, 0.1102, 0.8181, 1.4273,-0.8822
04-May-2019 22:30:16.886, 0.1015,-0.9897,-0.0249, 0.0057,-0.0151, 0.0857, 0.8093, 1.4316,-0.8767
04-May-2019 22:30:16.905, 0.1209,-0.9675,-0.0643, 0.0099, 0.0107, 0.0485, 0.7958, 1.4355,-0.8660
04-May-2019 22:30:16.925, 0.1598,-0.9518,-0.0839, 0.0457, 0.0326, 0.0158, 0.7828, 1.4402,-0.8538
04-May-2019 22:30:16.944, 0.1911,-0.9419,-0.0917, 0.0906, 0.0475, 0.0043, 0.7698, 1.4449,-0.8409
04-May-2019 22:30:16.963, 0.2176,-0.9462,-0.0945, 0.1214, 0.0498,-0.0079, 0.7554, 1.4482,-0.8270
04-May-2019 22:30:16.983, 0.2048,-0.9608,-0.1192, 0.1231, 0.0319,-0.0302, 0.7430, 1.4497,-0.8136
04-May-2019 22:30:17.002, 0.1425,-0.9509,-0.1828, 0.0991, 0.0343,-0.0673, 0.7348, 1.4503,-0.8033
04-May-2019 22:30:17.022, 0.0629,-0.8868,-0.1891, 0.0207, 0.0662,-0.1050, 0.7217, 1.4515,-0.7873
04-May-2019 22:30:17.041, 0.0584,-0.8248,-0.1913,-0.0291, 0.1434,-0.1028, 0.7026, 1.4527,-0.7660
04-May-2019 22:30:17.061, 0.1192,-0.8089,-0.1895, 0.0149, 0.1818,-0.0979, 0.6754, 1.4529,-0.7352
04-May-2019 22:30:17.080, 0.1479,-0.8251,-0.1960, 0.0694, 0.1770,-0.0963, 0.6330, 1.4510,-0.6875
04-May-2019 22:30:17.100, 0.1391,-0.8356,-0.1922, 0.0773, 0.1608,-0.0899, 0.5770, 1.4475,-0.6259
04-May-2019 22:30:17.119, 0.1205,-0.8591,-0.1888, 0.0689, 0.1487,-0.0791, 0.5168, 1.4427,-0.5607
04-May-2019 22:30:17.138, 0.0680,-0.9019,-0.1877, 0.0422, 0.1101,-0.0681, 0.4634, 1.4377,-0.5020
04-May-2019 22:30:17.158,-0.0013,-0.9439,-0.2101,-0.0274, 0.0713,-0.0707, 0.4158, 1.4311,-0.4504
04-May-2019 22:30:17.177,-0.0500,-1.0265,-0.2603,-0.0852, 0.0117,-0.0882, 0.3758, 1.4222,-0.4107
04-May-2019 22:30:17.197,-0.0478,-1.1384,-0.2322,-0.0988,-0.0964,-0.1119, 0.3190, 1.4039,-0.3566
04-May-2019 22:30:17.216,-0.0309,-1.2150,-0.0755,-0.0977,-0.2017, 0.0242, 0.2788, 1.3844,-0.3147
04-May-2019 22:30:17.236,-0.0164,-1.1797, 0.0508,-0.0700,-0.2310, 0.1864, 0.2625, 1.3710,-0.2908
04-May-2019 22:30:17.255,-0.0141,-1.1265, 0.0498,-0.0694,-0.1618, 0.2727, 0.2640, 1.3629,-0.2796
04-May-2019 22:30:17.275,-0.0394,-1.2639,-0.0698,-0.0710,-0.1951, 0.1897, 0.2691, 1.3556,-0.2769
04-May-2019 22:30:17.294,-0.1280,-1.4959,-0.0383,-0.1468,-0.4091, 0.1452, 0.2726, 1.3482,-0.2822
04-May-2019 22:30:17.314,-0.0669,-1.4946,-0.0226,-0.1898,-0.5722, 0.1948, 0.2873, 1.3430,-0.2976
04-May-2019 22:30:17.333, 0.0707,-1.1783,-0.0277,-0.0576,-0.3764, 0.1833, 0.3130, 1.3459,-0.3223
04-May-2019 22:30:17.353, 0.1196,-0.8739,-0.0421, 0.0484, 0.1032, 0.1587, 0.3408, 1.3562,-0.3505
04-May-2019 22:30:17.372, 0.1171,-0.7331,-0.1254, 0.0462, 0.2053, 0.0980, 0.3579, 1.3641,-0.3659
04-May-2019 22:30:17.392, 0.0657,-0.7977,-0.0159, 0.0292, 0.2324, 0.0974, 0.3715, 1.3707,-0.3779
04-May-2019 22:30:17.411, 0.0070,-0.9389, 0.0458,-0.0476, 0.1107, 0.2161, 0.3809, 1.3764,-0.3862
04-May-2019 22:30:17.430,-0.0314,-1.0233,-0.0035,-0.0842,-0.0056, 0.2056, 0.3929, 1.3844,-0.3982
04-May-2019 22:30:17.450,-0.0579,-1.0324,-0.0799,-0.1193,-0.0507, 0.1090, 0.4095, 1.3938,-0.4140
04-May-2019 22:30:17.469,-0.0208,-1.0006,-0.0736,-0.1147,-0.0352, 0.0688, 0.4365, 1.4039,-0.4377
04-May-2019 22:30:17.489,-0.0005,-0.9639,-0.0447,-0.0760, 0.0099, 0.0840, 0.4739, 1.4129,-0.4710
04-May-2019 22:30:17.508,-0.0457,-0.9750,-0.0796,-0.0914, 0.0211, 0.0831, 0.5155, 1.4193,-0.5106
04-May-2019 22:30:17.528,-0.0727,-0.9955,-0.1161,-0.1498,-0.0062, 0.0082, 0.5554, 1.4240,-0.5516
04-May-2019 22:30:17.547,-0.0329,-1.0040,-0.1255,-0.1435,-0.0110, 0.0005, 0.5828, 1.4273,-0.5811
04-May-2019 22:30:17.567, 0.0448,-0.9781,-0.1288,-0.0726,-0.0059,-0.0148, 0.6223, 1.4325,-0.6212
04-May-2019 22:30:17.586, 0.0977,-0.9275,-0.1360, 0.0032, 0.0402,-0.0257, 0.6674, 1.4373,-0.6647
04-May-2019 22:30:17.606, 0.0530,-0.8994,-0.1664,-0.0025, 0.0837,-0.0589, 0.7116, 1.4401,-0.7065
04-May-2019 22:30:17.625, 0.0037,-0.8962,-0.1900,-0.0671, 0.0946,-0.0784, 0.7555, 1.4412,-0.7468
04-May-2019 22:30:17.644,-0.0190,-0.8886,-0.2002,-0.1034, 0.0962,-0.1190, 0.7922, 1.4405,-0.7794
04-May-2019 22:30:17.664,-0.0048,-0.8590,-0.1147,-0.1143, 0.1176,-0.0616, 0.8227, 1.4386,-0.8049
04-May-2019 22:30:17.683, 0.0298,-0.8291,-0.1715,-0.0926, 0.1433,-0.0379, 0.8508, 1.4352,-0.8247
04-May-2019 22:30:17.703, 0.0902,-0.7848,-0.2431,-0.0171, 0.2053,-0.1529, 0.8719, 1.4302,-0.8346
04-May-2019 22:30:17.722, 0.0983,-0.7068,-0.2573,-0.0123, 0.2408,-0.1684, 0.8846, 1.4254,-0.8382
04-May-2019 22:30:17.742, 0.1009,-0.6358,-0.2310,-0.0224, 0.3236,-0.1624, 0.9018, 1.4174,-0.8425
04-May-2019 22:30:17.761, 0.1321,-0.6027,-0.2231,-0.0180, 0.3719,-0.1131, 0.9106, 1.4073,-0.8354
04-May-2019 22:30:17.781, 0.1647,-0.6096,-0.2289, 0.0126, 0.3849,-0.1227, 0.8894, 1.3941,-0.7932
04-May-2019 22:30:17.800, 0.1752,-0.7545,-0.2192, 0.0301, 0.3264,-0.0732, 0.8331, 1.3765,-0.7128
04-May-2019 22:30:17.820, 0.1254,-1.0667,-0.3882, 0.0166, 0.0753,-0.1533, 0.7493, 1.3522,-0.6068
04-May-2019 22:30:17.839, 0.0133,-1.3763,-0.3221,-0.0801,-0.2433,-0.1929, 0.6442, 1.3192,-0.4980
04-May-2019 22:30:17.858, 0.0101,-1.9850, 0.0854,-0.1481,-0.7049, 0.1776, 0.5488, 1.2879,-0.4229
04-May-2019 22:30:17.878, 0.1179,-2.2534, 0.1107,-0.0944,-1.2465, 0.3562, 0.5047, 1.2812,-0.3947
04-May-2019 22:30:17.897, 0.2728,-1.8737, 0.0630, 0.0638,-1.1561, 0.3411, 0.4977, 1.2853,-0.3918
04-May-2019 22:30:17.917, 0.2924,-1.3769, 0.0793, 0.1656,-0.6424, 0.2984, 0.5056, 1.2832,-0.4151
04-May-2019 22:30:17.936, 0.2677,-1.0672, 0.0760, 0.1337,-0.2508, 0.3524, 0.5277, 1.2782,-0.4590
04-May-2019 22:30:17.956, 0.2648,-0.8268,-0.0389, 0.1068, 0.0260, 0.2687, 0.5673, 1.2776,-0.5142
04-May-2019 22:30:17.975, 0.2626,-0.6534,-0.1189, 0.1084, 0.2276, 0.1476, 0.6046, 1.2805,-0.5653
04-May-2019 22:30:17.995, 0.2319,-0.5738,-0.1843, 0.0858, 0.3629, 0.0740, 0.6287, 1.2861,-0.6064
04-May-2019 22:30:18.014, 0.1592,-0.5998,-0.1651, 0.0328, 0.3867, 0.0344, 0.6401, 1.2911,-0.6408
04-May-2019 22:30:18.034, 0.1397,-0.7042,-0.0967,-0.0248, 0.3122, 0.0926, 0.6383, 1.2937,-0.6648
04-May-2019 22:30:18.053, 0.1867,-0.8053,-0.0819, 0.0001, 0.2079, 0.1375, 0.6305, 1.2958,-0.6808
04-May-2019 22:30:18.073, 0.2264,-0.8929,-0.1135, 0.0698, 0.0706, 0.1037, 0.6248, 1.2997,-0.6963
04-May-2019 22:30:18.092, 0.2441,-0.9541,-0.1198, 0.0845, 0.0379, 0.0952, 0.6198, 1.3032,-0.7058
04-May-2019 22:30:18.111, 0.2803,-0.9874,-0.1040, 0.1053,-0.0076, 0.1039, 0.6125, 1.3083,-0.7151
04-May-2019 22:30:18.131, 0.3311,-1.0218,-0.1091, 0.1606,-0.0346, 0.1031, 0.6101, 1.3137,-0.7257
04-May-2019 22:30:18.150, 0.3703,-1.0570,-0.1354, 0.2094,-0.0695, 0.0851, 0.6096, 1.3188,-0.7352
04-May-2019 22:30:18.170, 0.3778,-1.0806,-0.1674, 0.2418,-0.0973, 0.0431, 0.6065, 1.3233,-0.7386
04-May-2019 22:30:18.189, 0.3374,-1.0896,-0.1851, 0.2292,-0.1168, 0.0220, 0.6008, 1.3278,-0.7345
04-May-2019 22:30:18.209, 0.2553,-1.0625,-0.1950, 0.1672,-0.1069, 0.0042, 0.5944, 1.3326,-0.7257
04-May-2019 22:30:18.228, 0.1850,-0.9892,-0.1799, 0.0824,-0.0601,-0.0018, 0.5944, 1.3372,-0.7185
04-May-2019 22:30:18.247, 0.1681,-0.9183,-0.1589, 0.0444, 0.0253, 0.0224, 0.5991, 1.3401,-0.7153
04-May-2019 22:30:18.267, 0.1528,-0.8799,-0.1337, 0.0333, 0.0812, 0.0276, 0.6099, 1.3436,-0.7146
04-May-2019 22:30:18.286, 0.1208,-0.8996,-0.1139, 0.0094, 0.0909, 0.0619, 0.6259, 1.3477,-0.7185
04-May-2019 22:30:18.306, 0.0870,-0.9370,-0.1044,-0.0277, 0.0581, 0.0599, 0.6454, 1.3528,-0.7259
04-May-2019 22:30:18.325, 0.0595,-0.9561,-0.0901,-0.0568, 0.0280, 0.0688, 0.6619, 1.3586,-0.7322
04-May-2019 22:30:18.345, 0.0543,-0.9218,-0.1001,-0.0742, 0.0338, 0.0600, 0.6801, 1.3653,-0.7410
04-May-2019 22:30:18.364, 0.0549,-0.8701,-0.0806,-0.0711, 0.0886, 0.0620, 0.7001, 1.3720,-0.7516
04-May-2019 22:30:18.384, 0.0341,-0.8609,-0.0891,-0.0800, 0.1255, 0.0627, 0.7149, 1.3777,-0.7595
04-May-2019 22:30:18.403, 0.0415,-0.9404,-0.1267,-0.0921, 0.0951, 0.0356, 0.7236, 1.3831,-0.7636
04-May-2019 22:30:18.423, 0.0803,-1.0734,-0.1387,-0.0406,-0.0901,-0.0031, 0.7282, 1.3881,-0.7650
04-May-2019 22:30:18.442, 0.1268,-1.1909,-0.1268,-0.0144,-0.1523, 0.0043, 0.7299, 1.3914,-0.7644
04-May-2019 22:30:18.461, 0.1493,-1.2291,-0.1161, 0.0252,-0.2404, 0.0091, 0.7321, 1.3938,-0.7637
04-May-2019 22:30:18.481, 0.1306,-1.1128,-0.1232, 0.0277,-0.2072, 0.0100, 0.7395, 1.3941,-0.7692
04-May-2019 22:30:18.501, 0.0951,-0.9510,-0.1162,-0.0057,-0.0444, 0.0065, 0.7506, 1.3940,-0.7804
04-May-2019 22:30:18.520, 0.0742,-0.8495,-0.1098,-0.0429, 0.0937, 0.0177, 0.7599, 1.3937,-0.7911
04-May-2019 22:30:18.540, 0.0726,-0.8301,-0.1338,-0.0500, 0.1540, 0.0098, 0.7643, 1.3935,-0.7979
04-May-2019 22:30:18.559, 0.0862,-0.8809,-0.1213,-0.0421, 0.1347,-0.0130, 0.7613, 1.3935,-0.7989
04-May-2019 22:30:18.578, 0.1128,-0.9528,-0.0946,-0.0201, 0.0676, 0.0251, 0.7545, 1.3938,-0.7961
04-May-2019 22:30:18.598, 0.1420,-0.9896,-0.0879, 0.0083, 0.0043, 0.0354, 0.7520, 1.3951,-0.7958
04-May-2019 22:30:18.618, 0.1385,-0.9885,-0.0901, 0.0196,-0.0037, 0.0366, 0.7533, 1.3962,-0.7985
04-May-2019 22:30:18.637, 0.1203,-0.9847,-0.0934, 0.0080, 0.0009, 0.0397, 0.7540, 1.3960,-0.8003
04-May-2019 22:30:18.656, 0.1306,-1.0006,-0.1205, 0.0029,-0.0041, 0.0162, 0.7554, 1.3955,-0.8024
04-May-2019 22:30:18.676, 0.1507,-1.0290,-0.1041, 0.0215,-0.0311, 0.0136, 0.7564, 1.3957,-0.8030
04-May-2019 22:30:18.695, 0.1494,-1.0469,-0.0869, 0.0362,-0.0529, 0.0320, 0.7572, 1.3968,-0.8031
04-May-2019 22:30:18.715, 0.1151,-1.0523,-0.0897, 0.0178,-0.0665, 0.0393, 0.7567, 1.3982,-0.8033
04-May-2019 22:30:18.734, 0.0757,-1.0308,-0.0937,-0.0189,-0.0598, 0.0304, 0.7537, 1.4000,-0.8024
04-May-2019 22:30:18.753, 0.0607,-0.9866,-0.1022,-0.0514,-0.0243, 0.0267, 0.7496, 1.4019,-0.7999
04-May-2019 22:30:18.773, 0.0822,-0.9487,-0.0975,-0.0430, 0.0238, 0.0198, 0.7420, 1.4027,-0.7944
04-May-2019 22:30:18.792, 0.1028,-0.9319,-0.1098,-0.0155, 0.0516, 0.0261, 0.7338, 1.4026,-0.7882
04-May-2019 22:30:18.812, 0.1164,-0.9511,-0.1094,-0.0001, 0.0456, 0.0145, 0.7227, 1.4028,-0.7794
04-May-2019 22:30:18.832, 0.1221,-0.9721,-0.1226, 0.0104, 0.0255, 0.0131, 0.7112, 1.4036,-0.7694
04-May-2019 22:30:18.851, 0.1084,-0.9948,-0.1351, 0.0105, 0.0020,-0.0047, 0.6967, 1.4046,-0.7556
04-May-2019 22:30:18.871, 0.0868,-1.0074,-0.1351,-0.0066,-0.0185,-0.0071, 0.6818, 1.4061,-0.7416
04-May-2019 22:30:18.890, 0.0649,-0.9926,-0.1348,-0.0239,-0.0173,-0.0100, 0.6670, 1.4081,-0.7281
04-May-2019 22:30:18.909, 0.0471,-0.9741,-0.1177,-0.0404, 0.0049, 0.0004, 0.6509, 1.4095,-0.7137
04-May-2019 22:30:18.929, 0.0351,-0.9666,-0.0969,-0.0528, 0.0180, 0.0211, 0.6358, 1.4102,-0.7004
04-May-2019 22:30:18.948, 0.0400,-0.9873,-0.0936,-0.0561, 0.0145, 0.0381, 0.6217, 1.4108,-0.6890
04-May-2019 22:30:18.968, 0.0457,-1.0275,-0.1155,-0.0447,-0.0401, 0.0149, 0.6063, 1.4115,-0.6770
04-May-2019 22:30:18.987, 0.0513,-1.0419,-0.1237,-0.0409,-0.0533, 0.0070, 0.5954, 1.4120,-0.6688
04-May-2019 22:30:19.006, 0.0490,-1.0076,-0.1263,-0.0332,-0.0441, 0.0085, 0.5825, 1.4120,-0.6594
04-May-2019 22:30:19.026, 0.0371,-0.9573,-0.1421,-0.0408, 0.0069, 0.0005, 0.5709, 1.4112,-0.6520
04-May-2019 22:30:19.045, 0.0272,-0.9446,-0.1465,-0.0570, 0.0417,-0.0135, 0.5597, 1.4099,-0.6459
04-May-2019 22:30:19.065, 0.0315,-0.9745,-0.1476,-0.0559, 0.0349,-0.0065, 0.5492, 1.4083,-0.6396
04-May-2019 22:30:19.085, 0.0551,-1.0256,-0.1493,-0.0404,-0.0132,-0.0082, 0.5404, 1.4066,-0.6335
04-May-2019 22:30:19.104, 0.0767,-1.0422,-0.1448,-0.0131,-0.0496,-0.0058, 0.5331, 1.4056,-0.6292
04-May-2019 22:30:19.123, 0.0737,-1.0366,-0.1338,-0.0030,-0.0558, 0.0043, 0.5290, 1.4058,-0.6289
04-May-2019 22:30:19.143, 0.0488,-1.0139,-0.1217,-0.0331,-0.0273, 0.0194, 0.5256, 1.4069,-0.6303
04-May-2019 22:30:19.162, 0.0284,-0.9929,-0.1128,-0.0465,-0.0141, 0.0245, 0.5236, 1.4079,-0.6321
04-May-2019 22:30:19.182, 0.0328,-0.9808,-0.1119,-0.0495, 0.0027, 0.0234, 0.5198, 1.4091,-0.6333
04-May-2019 22:30:19.202, 0.0491,-0.9758,-0.1027,-0.0383, 0.0121, 0.0366, 0.5125, 1.4098,-0.6317
04-May-2019 22:30:19.221, 0.0639,-0.9847,-0.1193,-0.0202, 0.0076, 0.0284, 0.5056, 1.4100,-0.6301
04-May-2019 22:30:19.240, 0.0786,-0.9880,-0.1480,-0.0020, 0.0009, 0.0081, 0.5007, 1.4101,-0.6297
04-May-2019 22:30:19.259, 0.0782,-0.9843,-0.1544, 0.0058, 0.0004,-0.0164, 0.4958, 1.4104,-0.6300
04-May-2019 22:30:19.279, 0.0598,-0.9951,-0.1529,-0.0043,-0.0015,-0.0083, 0.4933, 1.4117,-0.6320
04-May-2019 22:30:19.298, 0.0466,-1.0140,-0.1464,-0.0219,-0.0215,-0.0109, 0.4926, 1.4135,-0.6350
04-May-2019 22:30:19.318, 0.0474,-1.0071,-0.1477,-0.0312,-0.0260,-0.0116, 0.4931, 1.4145,-0.6380
04-May-2019 22:30:19.337, 0.0727,-0.9905,-0.1368,-0.0145,-0.0093,-0.0066, 0.4954, 1.4147,-0.6418
04-May-2019 22:30:19.357, 0.0913,-0.9775,-0.1476, 0.0116, 0.0023,-0.0024, 0.4992, 1.4143,-0.6473
04-May-2019 22:30:19.376, 0.0885,-0.9683,-0.1626, 0.0165, 0.0173,-0.0205, 0.5026, 1.4129,-0.6515
04-May-2019 22:30:19.396, 0.0781,-0.9694,-0.1474, 0.0064, 0.0178,-0.0180, 0.5080, 1.4114,-0.6557
04-May-2019 22:30:19.415, 0.0812,-0.9680,-0.1226, 0.0017, 0.0156, 0.0061, 0.5154, 1.4112,-0.6607
04-May-2019 22:30:19.435, 0.0683,-0.9663,-0.1336,-0.0024, 0.0212, 0.0132, 0.5219, 1.4115,-0.6637
04-May-2019 22:30:19.454, 0.0508,-0.9690,-0.1431,-0.0196, 0.0183,-0.0034, 0.5219, 1.4106,-0.6600
04-May-2019 22:30:19.474, 0.0357,-0.9679,-0.1360,-0.0349, 0.0167,-0.0022, 0.5187, 1.4090,-0.6541
04-May-2019 22:30:19.493, 0.0314,-0.9648,-0.1264,-0.0506, 0.0226, 0.0072, 0.5156, 1.4075,-0.6483
04-May-2019 22:30:19.513, 0.0242,-0.9518,-0.1091,-0.0565, 0.0348, 0.0333, 0.5154, 1.4064,-0.6449
04-May-2019 22:30:19.532, 0.0070,-0.9422,-0.1059,-0.0677, 0.0403, 0.0357, 0.5169, 1.4058,-0.6443
04-May-2019 22:30:19.551,-0.0179,-0.9540,-0.1115,-0.0869, 0.0420, 0.0377, 0.5162, 1.4040,-0.6419
04-May-2019 22:30:19.571, 0.0004,-1.0149,-0.1241,-0.0978, 0.0032, 0.0338, 0.5103, 1.4010,-0.6343
04-May-2019 22:30:19.590, 0.0546,-1.0711,-0.1559,-0.0644,-0.0657, 0.0103, 0.5053, 1.3983,-0.6265
04-May-2019 22:30:19.610, 0.0982,-1.0427,-0.1669, 0.0006,-0.0850,-0.0107, 0.5033, 1.3961,-0.6205
04-May-2019 22:30:19.629, 0.0800,-0.9541,-0.1652, 0.0067,-0.0148,-0.0127, 0.5017, 1.3937,-0.6166
04-May-2019 22:30:19.649, 0.0516,-0.8812,-0.1521,-0.0222, 0.0730,-0.0013, 0.5025, 1.3898,-0.6169
04-May-2019 22:30:19.668, 0.0872,-0.8915,-0.1505,-0.0302, 0.1130, 0.0179, 0.5042, 1.3840,-0.6170
04-May-2019 22:30:19.688, 0.1837,-0.9995,-0.1963, 0.0450, 0.0465,-0.0065, 0.5039, 1.3791,-0.6131
04-May-2019 22:30:19.707, 0.2180,-1.1149,-0.2205, 0.1215,-0.0819,-0.0415, 0.5007, 1.3728,-0.6031
04-May-2019 22:30:19.727, 0.1411,-1.1712,-0.1631, 0.0990,-0.1748,-0.0260, 0.4935, 1.3688,-0.5909
04-May-2019 22:30:19.746, 0.0230,-1.1138,-0.0880,-0.0132,-0.1764, 0.0523, 0.4897, 1.3690,-0.5864
04-May-2019 22:30:19.766, 0.0066,-1.0034,-0.0775,-0.0879,-0.0753, 0.0981, 0.4902, 1.3712,-0.5872
04-May-2019 22:30:19.785, 0.0607,-0.9349,-0.0839,-0.0739, 0.0174, 0.0929, 0.4902, 1.3723,-0.5874
04-May-2019 22:30:19.804, 0.1355,-0.9190,-0.1252, 0.0118, 0.0621, 0.0711, 0.4890, 1.3730,-0.5866
04-May-2019 22:30:19.824, 0.1581,-0.9415,-0.1378, 0.0619, 0.0551, 0.0418, 0.4871, 1.3738,-0.5857
04-May-2019 22:30:19.843, 0.1412,-0.9810,-0.1348, 0.0616, 0.0162, 0.0312, 0.4846, 1.3745,-0.5860
04-May-2019 22:30:19.863, 0.1357,-1.0078,-0.1158, 0.0459,-0.0138, 0.0501, 0.4847, 1.3751,-0.5886
04-May-2019 22:30:19.883, 0.1456,-1.0165,-0.1267, 0.0545,-0.0355, 0.0446, 0.4888, 1.3756,-0.5938
04-May-2019 22:30:19.902, 0.1552,-1.0054,-0.1248, 0.0603,-0.0321, 0.0445, 0.4917, 1.3758,-0.5971
04-May-2019 22:30:19.921, 0.1563,-0.9858,-0.1287, 0.0632,-0.0166, 0.0475, 0.4960, 1.3763,-0.6011
04-May-2019 22:30:19.940, 0.1499,-0.9595,-0.1386, 0.0614, 0.0075, 0.0365, 0.5030, 1.3774,-0.6066
04-May-2019 22:30:19.960, 0.1347,-0.9436,-0.1367, 0.0501, 0.0350, 0.0278, 0.5116, 1.3787,-0.6128
04-May-2019 22:30:19.980, 0.1186,-0.9613,-0.1377, 0.0347, 0.0331, 0.0281, 0.5197, 1.3795,-0.6180
04-May-2019 22:30:19.999, 0.1111,-0.9815,-0.1301, 0.0184, 0.0112, 0.0242, 0.5268, 1.3799,-0.6221
04-May-2019 22:30:20.018, 0.1175,-1.0000,-0.1295, 0.0173,-0.0093, 0.0352, 0.5335, 1.3800,-0.6260
04-May-2019 22:30:20.038, 0.1189,-1.0006,-0.1333, 0.0217,-0.0227, 0.0301, 0.5395, 1.3797,-0.6291
04-May-2019 22:30:20.058, 0.1194,-0.9892,-0.1394, 0.0225,-0.0143, 0.0238, 0.5437, 1.3796,-0.6308
04-May-2019 22:30:20.077, 0.1253,-0.9785,-0.1255, 0.0225,-0.0020, 0.0284, 0.5484, 1.3797,-0.6322
04-May-2019 22:30:20.096, 0.1236,-0.9801,-0.1192, 0.0255, 0.0030, 0.0439, 0.5506, 1.3793,-0.6309
04-May-2019 22:30:20.116, 0.1093,-0.9788,-0.1296, 0.0182, 0.0001, 0.0413, 0.5494, 1.3783,-0.6263
04-May-2019 22:30:20.135, 0.0941,-0.9849,-0.1252, 0.0007, 0.0008, 0.0330, 0.5459, 1.3772,-0.6204
04-May-2019 22:30:20.157, 0.0924,-0.9924,-0.1188,-0.0084,-0.0088, 0.0458, 0.5420, 1.3760,-0.6151
04-May-2019 22:30:20.174, 0.1034,-1.0007,-0.1355,-0.0015,-0.0157, 0.0431, 0.5362, 1.3742,-0.6087
04-May-2019 22:30:20.194, 0.1057,-1.0096,-0.1379, 0.0059,-0.0275, 0.0357, 0.5293, 1.3728,-0.6020
04-May-2019 22:30:20.213, 0.1086,-1.0066,-0.1486, 0.0060,-0.0269, 0.0259, 0.5227, 1.3721,-0.5957
04-May-2019 22:30:20.233, 0.1038,-1.0024,-0.1490, 0.0061,-0.0222, 0.0233, 0.5159, 1.3714,-0.5893
04-May-2019 22:30:20.252, 0.0998,-0.9992,-0.1442, 0.0035,-0.0194, 0.0274, 0.5100, 1.3705,-0.5837
04-May-2019 22:30:20.271, 0.0952,-0.9905,-0.1532,-0.0004,-0.0175, 0.0295, 0.5020, 1.3691,-0.5762
04-May-2019 22:30:20.291, 0.0848,-0.9857,-0.1646,-0.0049,-0.0087, 0.0144, 0.4968, 1.3685,-0.5714
04-May-2019 22:30:20.310, 0.0807,-0.9767,-0.1550,-0.0103, 0.0024, 0.0147, 0.4941, 1.3692,-0.5687
04-May-2019 22:30:20.330, 0.0739,-0.9866,-0.1476,-0.0175,-0.0024, 0.0243, 0.4898, 1.3701,-0.5651
04-May-2019 22:30:20.349, 0.0761,-0.9900,-0.1618,-0.0174,-0.0092, 0.0257, 0.4845, 1.3702,-0.5607
04-May-2019 22:30:20.369, 0.0902,-0.9872,-0.1764,-0.0067,-0.0088, 0.0056, 0.4817, 1.3702,-0.5590
04-May-2019 22:30:20.388, 0.0813,-0.9843,-0.1723,-0.0020,-0.0065,-0.0003, 0.4820, 1.3716,-0.5601
04-May-2019 22:30:20.407, 0.0613,-0.9801,-0.1830,-0.0298, 0.0005,-0.0093, 0.4827, 1.3733,-0.5618
04-May-2019 22:30:20.427, 0.0451,-0.9875,-0.1709,-0.0401,-0.0042,-0.0099, 0.4821, 1.3742,-0.5627
04-May-2019 22:30:20.447, 0.0575,-0.9988,-0.1529,-0.0435,-0.0107, 0.0154, 0.4813, 1.3752,-0.5633
04-May-2019 22:30:20.466, 0.0803,-0.9988,-0.1577,-0.0180,-0.0196, 0.0183, 0.4827, 1.3765,-0.5654
04-May-2019 22:30:20.485, 0.0799,-0.9885,-0.1516,-0.0089,-0.0128, 0.0146, 0.4860, 1.3785,-0.5697
04-May-2019 22:30:20.505, 0.0714,-0.9760,-0.1468,-0.0114, 0.0001, 0.0170, 0.4897, 1.3808,-0.5743
04-May-2019 22:30:20.524, 0.0645,-0.9741,-0.1424,-0.0210, 0.0093, 0.0202, 0.4915, 1.3825,-0.5770
04-May-2019 22:30:20.543, 0.0739,-0.9845,-0.1453,-0.0207, 0.0049, 0.0218, 0.4916, 1.3836,-0.5782
04-May-2019 22:30:20.563, 0.0816,-0.9927,-0.1458,-0.0089,-0.0065, 0.0159, 0.4919, 1.3844,-0.5801
04-May-2019 22:30:20.583, 0.0870,-0.9960,-0.1291,-0.0041,-0.0101, 0.0273, 0.4932, 1.3848,-0.5833
04-May-2019 22:30:20.602, 0.0920,-0.9911,-0.1176,-0.0010,-0.0129, 0.0393, 0.4951, 1.3850,-0.5861
04-May-2019 22:30:20.622, 0.0973,-0.9859,-0.1109, 0.0056,-0.0049, 0.0491, 0.4991, 1.3858,-0.5909
04-May-2019 22:30:20.641, 0.1096,-0.9815,-0.1190, 0.0170,-0.0007, 0.0477, 0.5028, 1.3866,-0.5947
04-May-2019 22:30:20.660, 0.1105,-0.9868,-0.1116, 0.0200, 0.0030, 0.0425, 0.5055, 1.3870,-0.5971
04-May-2019 22:30:20.680, 0.1172,-0.9963,-0.0916, 0.0252,-0.0115, 0.0576, 0.5107, 1.3881,-0.6029
04-May-2019 22:30:20.699, 0.1274,-0.9894,-0.0761, 0.0353,-0.0110, 0.0741, 0.5182, 1.3898,-0.6115
04-May-2019 22:30:20.719, 0.1336,-0.9838,-0.0723, 0.0421,-0.0004, 0.0819, 0.5243, 1.3911,-0.6182
04-May-2019 22:30:20.738, 0.1543,-0.9828,-0.0869, 0.0520, 0.0013, 0.0735, 0.5291, 1.3920,-0.6219
04-May-2019 22:30:20.758, 0.1605,-0.9791,-0.1065, 0.0713, 0.0010, 0.0560, 0.5324, 1.3925,-0.6227
04-May-2019 22:30:20.778, 0.1481,-0.9630,-0.1285, 0.0578, 0.0211, 0.0241, 0.5349, 1.3925,-0.6215
04-May-2019 22:30:20.797, 0.1358,-0.9523,-0.1252, 0.0499, 0.0259, 0.0219, 0.5369, 1.3927,-0.6205
04-May-2019 22:30:20.816, 0.1416,-0.9543,-0.1135, 0.0472, 0.0338, 0.0336, 0.5400, 1.3931,-0.6189
04-May-2019 22:30:20.836, 0.1513,-0.9671,-0.1186, 0.0572, 0.0247, 0.0376, 0.5399, 1.3930,-0.6128
04-May-2019 22:30:20.855, 0.1316,-0.9747,-0.1417, 0.0548, 0.0117, 0.0210, 0.5369, 1.3924,-0.6030
04-May-2019 22:30:20.875, 0.0762,-0.9516,-0.1570, 0.0173, 0.0176, 0.0000, 0.5334, 1.3924,-0.5933
04-May-2019 22:30:20.894, 0.0146,-0.9121,-0.1458,-0.0496, 0.0498,-0.0055, 0.5297, 1.3928,-0.5846
04-May-2019 22:30:20.914, 0.0085,-0.8925,-0.1014,-0.0798, 0.0874, 0.0275, 0.5241, 1.3929,-0.5745
04-May-2019 22:30:20.933, 0.0133,-0.9260,-0.0723,-0.0784, 0.0811, 0.0704, 0.5152, 1.3925,-0.5604
04-May-2019 22:30:20.953, 0.0610,-1.0040,-0.0648,-0.0253,-0.0201, 0.0918, 0.5037, 1.3910,-0.5420
04-May-2019 22:30:20.972, 0.0978,-1.0951,-0.0930, 0.0018,-0.0665, 0.0819, 0.4949, 1.3887,-0.5273
04-May-2019 22:30:20.991, 0.0864,-1.1628,-0.1093, 0.0107,-0.1543, 0.0539, 0.4847, 1.3851,-0.5102
04-May-2019 22:30:21.011, 0.0877,-1.1604,-0.0959,-0.0043,-0.1896, 0.0624, 0.4793, 1.3833,-0.4970
04-May-2019 22:30:21.030, 0.0936,-1.0809,-0.0980, 0.0089,-0.1470, 0.0703, 0.4786, 1.3839,-0.4861
04-May-2019 22:30:21.050, 0.0495,-0.9739,-0.0983,-0.0063,-0.0431, 0.0659, 0.4780, 1.3857,-0.4752
04-May-2019 22:30:21.070, 0.0067,-0.9207,-0.0823,-0.0604, 0.0430, 0.0732, 0.4708, 1.3868,-0.4610
04-May-2019 22:30:21.089, 0.0050,-0.9376,-0.0751,-0.0781, 0.0596, 0.0864, 0.4541, 1.3861,-0.4404
04-May-2019 22:30:21.108, 0.0186,-0.9648,-0.0744,-0.0682, 0.0302, 0.0940, 0.4331, 1.3840,-0.4158
04-May-2019 22:30:21.128, 0.0356,-0.9643,-0.0813,-0.0402, 0.0178, 0.0908, 0.4147, 1.3816,-0.3922
04-May-2019 22:30:21.147, 0.0412,-0.9511,-0.0827,-0.0327, 0.0251, 0.0912, 0.4025, 1.3794,-0.3757
04-May-2019 22:30:21.167, 0.0329,-0.9489,-0.0852,-0.0341, 0.0336, 0.0953, 0.3865, 1.3759,-0.3550
04-May-2019 22:30:21.186, 0.0143,-0.9665,-0.0813,-0.0468, 0.0233, 0.0992, 0.3713, 1.3720,-0.3368
04-May-2019 22:30:21.205, 0.0075,-0.9918,-0.0630,-0.0611,-0.0014, 0.1163, 0.3575, 1.3676,-0.3208
04-May-2019 22:30:21.225, 0.0110,-1.0066,-0.0539,-0.0618,-0.0239, 0.1361, 0.3459, 1.3631,-0.3065
04-May-2019 22:30:21.244, 0.0388,-0.9948,-0.0398,-0.0447,-0.0245, 0.1510, 0.3367, 1.3591,-0.2945
04-May-2019 22:30:21.264, 0.0399,-0.9831,-0.0192,-0.0258,-0.0117, 0.1741, 0.3293, 1.3553,-0.2847
04-May-2019 22:30:21.283, 0.0201,-0.9734,-0.0220,-0.0381,-0.0014, 0.1879, 0.3233, 1.3517,-0.2770
04-May-2019 22:30:21.303, 0.0078,-0.9725,-0.0287,-0.0590, 0.0054, 0.1836, 0.3184, 1.3481,-0.2714
04-May-2019 22:30:21.322, 0.0041,-0.9888,-0.0331,-0.0635,-0.0069, 0.1818, 0.3155, 1.3453,-0.2683
04-May-2019 22:30:21.341, 0.0089,-1.0267,-0.0423,-0.0634,-0.0318, 0.1812, 0.3126, 1.3416,-0.2652
04-May-2019 22:30:21.361, 0.0114,-1.0494,-0.0617,-0.0612,-0.0683, 0.1675, 0.3119, 1.3387,-0.2635
04-May-2019 22:30:21.381, 0.0170,-1.0601,-0.0727,-0.0589,-0.0827, 0.1472, 0.3136, 1.3373,-0.2632
04-May-2019 22:30:21.400, 0.0384,-1.0655,-0.0698,-0.0475,-0.0902, 0.1510, 0.3187, 1.3378,-0.2639
04-May-2019 22:30:21.419, 0.0482,-1.0550,-0.0732,-0.0278,-0.0878, 0.1423, 0.3290, 1.3399,-0.2667
04-May-2019 22:30:21.439, 0.0071,-1.0510,-0.0671,-0.0438,-0.0769, 0.1406, 0.3430, 1.3433,-0.2724
04-May-2019 22:30:21.459,-0.0785,-1.0764,-0.0375,-0.1106,-0.0882, 0.1546, 0.3567, 1.3472,-0.2795
04-May-2019 22:30:21.478,-0.0839,-1.1236,-0.0434,-0.1769,-0.1169, 0.1730, 0.3719, 1.3521,-0.2880
04-May-2019 22:30:21.497, 0.0044,-1.1834,-0.1251,-0.1229,-0.1813, 0.1205, 0.3831, 1.3556,-0.2935
04-May-2019 22:30:21.517, 0.0699,-1.1795,-0.2460,-0.0474,-0.2107, 0.0055, 0.3952, 1.3578,-0.2993
04-May-2019 22:30:21.536, 0.1006,-1.1105,-0.3054, 0.0153,-0.1707,-0.0937, 0.4093, 1.3607,-0.3109
04-May-2019 22:30:21.556, 0.0735,-1.0269,-0.3071, 0.0017,-0.0905,-0.1230, 0.4228, 1.3652,-0.3244
04-May-2019 22:30:21.575, 0.1350,-0.9507,-0.3147, 0.0064,-0.0079,-0.1199, 0.4335, 1.3680,-0.3312
04-May-2019 22:30:21.595, 0.2502,-0.8999,-0.3294, 0.1094, 0.0593,-0.1482, 0.4454, 1.3703,-0.3324
04-May-2019 22:30:21.614, 0.2806,-0.8823,-0.2963, 0.1970, 0.0911,-0.1435, 0.4595, 1.3739,-0.3336
04-May-2019 22:30:21.633, 0.1574,-0.9033,-0.2492, 0.1438, 0.0962,-0.0986, 0.4699, 1.3765,-0.3339
04-May-2019 22:30:21.653, 0.0346,-0.9705,-0.2206, 0.0021, 0.0471,-0.0649, 0.4733, 1.3763,-0.3323
04-May-2019 22:30:21.672, 0.0082,-1.0310,-0.2296,-0.0805,-0.0500,-0.0570, 0.4753, 1.3756,-0.3331
04-May-2019 22:30:21.692, 0.0136,-1.0569,-0.2716,-0.0808,-0.0728,-0.0798, 0.4777, 1.3755,-0.3362
04-May-2019 22:30:21.711, 0.0634,-1.0175,-0.2521,-0.0561,-0.0640,-0.1023, 0.4886, 1.3765,-0.3483
04-May-2019 22:30:21.731, 0.1358,-0.9282,-0.2080, 0.0082, 0.0035,-0.0616, 0.5104, 1.3795,-0.3695
04-May-2019 22:30:21.750, 0.1794,-0.8233,-0.1919, 0.0664, 0.1110,-0.0359, 0.5364, 1.3827,-0.3932
04-May-2019 22:30:21.770, 0.1645,-0.7735,-0.1964, 0.0793, 0.1914,-0.0345, 0.5560, 1.3837,-0.4120
04-May-2019 22:30:21.789, 0.1302,-0.7789,-0.1969, 0.0450, 0.2141,-0.0412, 0.5650, 1.3819,-0.4222
04-May-2019 22:30:21.809, 0.1383,-0.8266,-0.1893, 0.0257, 0.1826,-0.0342, 0.5657, 1.3784,-0.4238
04-May-2019 22:30:21.828, 0.1821,-0.8917,-0.1677, 0.0512, 0.1223,-0.0134, 0.5623, 1.3747,-0.4198
04-May-2019 22:30:21.848, 0.2267,-0.9455,-0.1750, 0.1032, 0.0604, 0.0009, 0.5594, 1.3710,-0.4149
04-May-2019 22:30:21.867, 0.2246,-0.9820,-0.1884, 0.1178,-0.0028,-0.0162, 0.5548, 1.3667,-0.4085
04-May-2019 22:30:21.886, 0.1669,-0.9935,-0.1630, 0.0918,-0.0114,-0.0047, 0.5501, 1.3636,-0.4040
04-May-2019 22:30:21.906, 0.1029,-0.9739,-0.1441, 0.0249,-0.0053, 0.0256, 0.5448, 1.3603,-0.4000
04-May-2019 22:30:21.926, 0.0568,-0.9572,-0.1180,-0.0344, 0.0139, 0.0512, 0.5405, 1.3584,-0.3969
04-May-2019 22:30:21.945, 0.0575,-0.9560,-0.0910,-0.0566, 0.0216, 0.0799, 0.5354, 1.3570,-0.3929
04-May-2019 22:30:21.964, 0.0914,-0.9655,-0.0744,-0.0363, 0.0155, 0.1024, 0.5293, 1.3561,-0.3883
04-May-2019 22:30:21.984, 0.1292,-0.9736,-0.0653, 0.0022, 0.0070, 0.1167, 0.5221, 1.3555,-0.3840
04-May-2019 22:30:22.003, 0.1464,-0.9759,-0.0711, 0.0350, 0.0009, 0.1191, 0.5126, 1.3551,-0.3792
04-May-2019 22:30:22.023, 0.1504,-0.9663,-0.0791, 0.0479, 0.0045, 0.1111, 0.5024, 1.3549,-0.3749
04-May-2019 22:30:22.042, 0.1613,-0.9586,-0.0814, 0.0601, 0.0183, 0.1069, 0.4931, 1.3554,-0.3718
04-May-2019 22:30:22.062, 0.1361,-0.9727,-0.0810, 0.0527, 0.0161, 0.1072, 0.4845, 1.3556,-0.3683
04-May-2019 22:30:22.081, 0.0951,-1.0086,-0.0778, 0.0195,-0.0120, 0.1102, 0.4707, 1.3561,-0.3626
04-May-2019 22:30:22.101, 0.0864,-1.0377,-0.0764,-0.0093,-0.0490, 0.1167, 0.4563, 1.3572,-0.3566
04-May-2019 22:30:22.120, 0.1173,-1.0616,-0.0787, 0.0129,-0.0684, 0.1081, 0.4446, 1.3591,-0.3527
04-May-2019 22:30:22.140, 0.1249,-1.0837,-0.0381, 0.0385,-0.0947, 0.1262, 0.4362, 1.3623,-0.3522
04-May-2019 22:30:22.159, 0.0822,-1.1038,-0.0058, 0.0223,-0.1134, 0.1672, 0.4319, 1.3684,-0.3576
04-May-2019 22:30:22.179, 0.0733,-1.1362,-0.0291,-0.0167,-0.1368, 0.1609, 0.4316, 1.3767,-0.3699
04-May-2019 22:30:22.198, 0.1647,-1.1583,-0.0820, 0.0314,-0.1625, 0.1147, 0.4369, 1.3847,-0.3889
04-May-2019 22:30:22.217, 0.2702,-1.1894,-0.1296, 0.1924,-0.2056, 0.0317, 0.4498, 1.3907,-0.4134
04-May-2019 22:30:22.237, 0.2677,-1.1684,-0.1867, 0.2052,-0.2000, 0.0040, 0.4617, 1.3951,-0.4314
04-May-2019 22:30:22.256, 0.1728,-1.1451,-0.2818, 0.1546,-0.1697,-0.0853, 0.4786, 1.4005,-0.4529
04-May-2019 22:30:22.276,-0.0079,-1.0965,-0.3215, 0.0034,-0.1397,-0.1696, 0.5001, 1.4046,-0.4769
04-May-2019 22:30:22.295,-0.1302,-0.9962,-0.2481,-0.1684,-0.0672,-0.1550, 0.5347, 1.4104,-0.5153
04-May-2019 22:30:22.315,-0.0699,-0.8640,-0.2160,-0.2064, 0.0621,-0.0916, 0.5763, 1.4169,-0.5608
04-May-2019 22:30:22.334, 0.0642,-0.8197,-0.2280,-0.0847, 0.1587,-0.0963, 0.6049, 1.4181,-0.5934
04-May-2019 22:30:22.354, 0.1305,-0.8852,-0.2617, 0.0238, 0.1468,-0.1199, 0.6150, 1.4154,-0.6068
04-May-2019 22:30:22.373, 0.0800,-1.0000,-0.2441, 0.0247, 0.0432,-0.1375, 0.6173, 1.4140,-0.6107
04-May-2019 22:30:22.393, 0.0395,-1.0623,-0.1643,-0.0511,-0.0745,-0.0378, 0.6216, 1.4146,-0.6144
04-May-2019 22:30:22.412, 0.0850,-1.0600,-0.1423,-0.0356,-0.0801,-0.0154, 0.6285, 1.4152,-0.6192
04-May-2019 22:30:22.431, 0.1177,-1.0062,-0.1779, 0.0163,-0.0511,-0.0384, 0.6370, 1.4151,-0.6241
04-May-2019 22:30:22.451, 0.1160,-0.9200,-0.1812, 0.0283, 0.0242,-0.0657, 0.6440, 1.4156,-0.6278
04-May-2019 22:30:22.470, 0.0801,-0.8521,-0.1425, 0.0127, 0.1035,-0.0447, 0.6479, 1.4183,-0.6282
04-May-2019 22:30:22.490, 0.0247,-0.8193,-0.1010,-0.0372, 0.1573, 0.0003, 0.6457, 1.4209,-0.6219
04-May-2019 22:30:22.509, 0.0002,-0.8272,-0.1103,-0.0791, 0.1726, 0.0191, 0.6344, 1.4216,-0.6062
04-May-2019 22:30:22.529,-0.0184,-0.8698,-0.1282,-0.0971, 0.1431, 0.0032, 0.6177, 1.4203,-0.5859
04-May-2019 22:30:22.548,-0.0239,-0.9192,-0.1299,-0.1084, 0.0944,-0.0021, 0.5997, 1.4183,-0.5654
04-May-2019 22:30:22.568,-0.0148,-0.9531,-0.1166,-0.1029, 0.0517, 0.0056, 0.5839, 1.4164,-0.5476
04-May-2019 22:30:22.587,-0.0084,-0.9659,-0.0928,-0.0965, 0.0273, 0.0249, 0.5726, 1.4152,-0.5350
04-May-2019 22:30:22.606,-0.0001,-0.9560,-0.0933,-0.0904, 0.0249, 0.0425, 0.5589, 1.4134,-0.5196
04-May-2019 22:30:22.626, 0.0074,-0.9510,-0.0872,-0.0801, 0.0344, 0.0434, 0.5502, 1.4113,-0.5095
04-May-2019 22:30:22.645, 0.0184,-0.9439,-0.0691,-0.0740, 0.0413, 0.0566, 0.5457, 1.4094,-0.5040
04-May-2019 22:30:22.665, 0.0363,-0.9434,-0.0346,-0.0578, 0.0433, 0.0885, 0.5433, 1.4071,-0.5001
04-May-2019 22:30:22.685, 0.0632,-0.9563,-0.0334,-0.0361, 0.0383, 0.1169, 0.5414, 1.4039,-0.4954
04-May-2019 22:30:22.704, 0.0704,-0.9803,-0.0383,-0.0194, 0.0189, 0.1056, 0.5376, 1.4003,-0.4881
04-May-2019 22:30:22.723, 0.0567,-1.0232,-0.0403,-0.0202,-0.0163, 0.1114, 0.5344, 1.3973,-0.4797
04-May-2019 22:30:22.743, 0.0361,-1.0492,-0.0414,-0.0463,-0.0549, 0.1051, 0.5363, 1.3957,-0.4761
04-May-2019 22:30:22.762, 0.0351,-1.0645,-0.0253,-0.0550,-0.0796, 0.1229, 0.5460, 1.3964,-0.4793
04-May-2019 22:30:22.782, 0.0456,-1.0688,-0.0414,-0.0475,-0.0822, 0.1161, 0.5582, 1.3982,-0.4858
04-May-2019 22:30:22.801, 0.0120,-1.0687,-0.0395,-0.0588,-0.0808, 0.0944, 0.5796, 1.4011,-0.5007
04-May-2019 22:30:22.820,-0.0143,-1.0809, 0.0383,-0.0968,-0.0833, 0.1288, 0.6060, 1.4054,-0.5236
04-May-2019 22:30:22.840, 0.0158,-1.0922, 0.1223,-0.0990,-0.1023, 0.2106, 0.6457, 1.4132,-0.5591
04-May-2019 22:30:22.860, 0.0896,-1.0860, 0.0972,-0.0405,-0.1020, 0.2402, 0.6958, 1.4229,-0.6019
04-May-2019 22:30:22.879, 0.0971,-1.1087,-0.0271, 0.0065,-0.1051, 0.1441, 0.7362, 1.4300,-0.6361
04-May-2019 22:30:22.898, 0.0765,-1.1020,-0.1565,-0.0053,-0.1228, 0.0039, 0.7711, 1.4347,-0.6673
04-May-2019 22:30:22.918, 0.0510,-1.0798,-0.2647,-0.0326,-0.0966,-0.1182, 0.7994, 1.4387,-0.6925
04-May-2019 22:30:22.938, 0.0469,-1.0704,-0.3762,-0.0538,-0.0817,-0.2290, 0.7927, 1.4399,-0.6832
04-May-2019 22:30:22.956, 0.1581,-1.0504,-0.4150,-0.0010,-0.0729,-0.3121, 0.7495, 1.4384,-0.6345
04-May-2019 22:30:22.976, 0.2719,-1.0348,-0.3445, 0.1424,-0.0462,-0.2944, 0.7098, 1.4377,-0.5875
04-May-2019 22:30:22.996, 0.2432,-1.0265,-0.2151, 0.1931,-0.0456,-0.1782, 0.6970, 1.4398,-0.5696
04-May-2019 22:30:23.015, 0.0886,-1.0061,-0.1242, 0.0899,-0.0178,-0.0702, 0.7007, 1.4417,-0.5697
04-May-2019 22:30:23.034,-0.0499,-1.0278,-0.0935,-0.0738,-0.0182, 0.0064, 0.7044, 1.4413,-0.5716
04-May-2019 22:30:23.054,-0.0729,-1.0598,-0.1651,-0.1678,-0.0599,-0.0203, 0.7046, 1.4392,-0.5725
04-May-2019 22:30:23.073, 0.0113,-1.0019,-0.2042,-0.1206,-0.0566,-0.0945, 0.7152, 1.4377,-0.5858
04-May-2019 22:30:23.093, 0.1153,-0.8565,-0.1674,-0.0257, 0.0578,-0.0900, 0.7406, 1.4382,-0.6133
04-May-2019 22:30:23.112, 0.1446,-0.7442,-0.1280, 0.0532, 0.2470,-0.0323, 0.7625, 1.4381,-0.6365
04-May-2019 22:30:23.132, 0.1328,-0.7204,-0.1030, 0.0456, 0.2703,-0.0116, 0.7644, 1.4365,-0.6405
04-May-2019 22:30:23.152, 0.1465,-0.7692,-0.1291, 0.0432, 0.2504,-0.0093, 0.7466, 1.4325,-0.6268
04-May-2019 22:30:23.171, 0.1913,-0.8678,-0.1520, 0.0742, 0.1744,-0.0378, 0.7186, 1.4272,-0.6040
04-May-2019 22:30:23.190, 0.2266,-0.9547,-0.1473, 0.1170, 0.0727,-0.0385, 0.6947, 1.4218,-0.5836
04-May-2019 22:30:23.210, 0.2224,-0.9851,-0.1223, 0.1345, 0.0125,-0.0195, 0.6760, 1.4171,-0.5666
04-May-2019 22:30:23.229, 0.1841,-0.9799,-0.0979, 0.1100, 0.0052, 0.0124, 0.6591, 1.4128,-0.5509
04-May-2019 22:30:23.248, 0.1297,-0.9723,-0.0846, 0.0596, 0.0134, 0.0433, 0.6421, 1.4086,-0.5355
04-May-2019 22:30:23.268, 0.0956,-0.9743,-0.1017, 0.0123, 0.0127, 0.0407, 0.6248, 1.4047,-0.5201
04-May-2019 22:30:23.288, 0.0823,-0.9871,-0.0824,-0.0138,-0.0014, 0.0565, 0.6056, 1.4011,-0.5025
04-May-2019 22:30:23.307, 0.0731,-0.9915,-0.0672,-0.0220,-0.0063, 0.0751, 0.5890, 1.3987,-0.4878
04-May-2019 22:30:23.326, 0.0672,-0.9822,-0.0340,-0.0247,-0.0042, 0.0926, 0.5803, 1.3981,-0.4816
04-May-2019 22:30:23.346, 0.0817,-0.9588,-0.0207,-0.0218, 0.0148, 0.1207, 0.5729, 1.3981,-0.4789
04-May-2019 22:30:23.365, 0.1234,-0.9449,-0.0196, 0.0124, 0.0375, 0.1246, 0.5676, 1.3986,-0.4789
04-May-2019 22:30:23.385, 0.1506,-0.9585,-0.0376, 0.0509, 0.0380, 0.1201, 0.5640, 1.3990,-0.4806
04-May-2019 22:30:23.404, 0.1309,-0.9926,-0.0610, 0.0539, 0.0096, 0.0930, 0.5606, 1.3993,-0.4825
04-May-2019 22:30:23.423, 0.1212,-1.0279,-0.0597, 0.0304,-0.0263, 0.0796, 0.5572, 1.4002,-0.4849
04-May-2019 22:30:23.443, 0.1559,-1.0479,-0.0387, 0.0439,-0.0527, 0.0895, 0.5563, 1.4022,-0.4889
04-May-2019 22:30:23.463, 0.1706,-1.0801, 0.0196, 0.0845,-0.0766, 0.1195, 0.5641, 1.4061,-0.4995
04-May-2019 22:30:23.482, 0.1220,-1.1058, 0.0883, 0.0670,-0.1064, 0.1936, 0.5774, 1.4108,-0.5149
04-May-2019 22:30:23.502, 0.0709,-1.1085, 0.0833, 0.0035,-0.1184, 0.2151, 0.6042, 1.4187,-0.5468
04-May-2019 22:30:23.521, 0.1145,-1.1257, 0.0251,-0.0022,-0.1213, 0.1777, 0.6365, 1.4265,-0.5876
04-May-2019 22:30:23.540, 0.1629,-1.1867,-0.0673, 0.0591,-0.1634, 0.0852, 0.6652, 1.4323,-0.6257
04-May-2019 22:30:23.560, 0.1358,-1.1860,-0.1924, 0.0745,-0.2022,-0.0078, 0.6933, 1.4361,-0.6612
04-May-2019 22:30:23.579, 0.0577,-1.1730,-0.3733, 0.0154,-0.1895,-0.1878, 0.7151, 1.4375,-0.6889
04-May-2019 22:30:23.599,-0.0273,-1.1210,-0.4003,-0.0787,-0.1619,-0.3197, 0.7308, 1.4365,-0.7119
04-May-2019 22:30:23.619,-0.0406,-1.0038,-0.2821,-0.1533,-0.0793,-0.2450, 0.7699, 1.4363,-0.7561
04-May-2019 22:30:23.638, 0.0642,-0.8808,-0.2119,-0.0911, 0.0563,-0.1528, 0.8066, 1.4345,-0.7960
04-May-2019 22:30:23.658, 0.1653,-0.8823,-0.1861, 0.0641, 0.1080,-0.0908, 0.8155, 1.4313,-0.8086
04-May-2019 22:30:23.677, 0.1387,-0.9887,-0.2030, 0.0673, 0.0555,-0.1006, 0.8108, 1.4292,-0.8075
04-May-2019 22:30:23.696, 0.0462,-1.0554,-0.1518,-0.0121,-0.0415,-0.0877, 0.8011, 1.4271,-0.8035
04-May-2019 22:30:23.716, 0.0614,-1.0641,-0.1125,-0.0672,-0.0743,-0.0182, 0.8004, 1.4261,-0.8053
04-May-2019 22:30:23.735, 0.1145,-1.0218,-0.1377,-0.0104,-0.0603,-0.0247, 0.8019, 1.4262,-0.8054
04-May-2019 22:30:23.754, 0.1297,-0.9436,-0.1561, 0.0235, 0.0080,-0.0511, 0.8012, 1.4271,-0.8024
04-May-2019 22:30:23.774, 0.1195,-0.8641,-0.1241, 0.0267, 0.0872,-0.0452, 0.7975, 1.4291,-0.7965
04-May-2019 22:30:23.793, 0.0809,-0.8217,-0.0814, 0.0049, 0.1505,-0.0025, 0.7880, 1.4307,-0.7845
04-May-2019 22:30:23.813, 0.0448,-0.8153,-0.0736,-0.0373, 0.1751, 0.0281, 0.7681, 1.4308,-0.7605
04-May-2019 22:30:23.833, 0.0179,-0.8257,-0.1029,-0.0770, 0.1643, 0.0014, 0.7381, 1.4294,-0.7256
04-May-2019 22:30:23.852, 0.0042,-0.8575,-0.1130,-0.0841, 0.1506,-0.0025, 0.7132, 1.4276,-0.6969
04-May-2019 22:30:23.871,-0.0052,-0.8956,-0.1172,-0.0958, 0.1148,-0.0015, 0.6794, 1.4239,-0.6582
04-May-2019 22:30:23.890,-0.0166,-0.9291,-0.1040,-0.1009, 0.0738, 0.0062, 0.6483, 1.4196,-0.6222
04-May-2019 22:30:23.910,-0.0188,-0.9472,-0.0842,-0.1106, 0.0481, 0.0337, 0.6209, 1.4153,-0.5904
04-May-2019 22:30:23.929, 0.0062,-0.9630,-0.0657,-0.0971, 0.0310, 0.0533, 0.6002, 1.4110,-0.5654
04-May-2019 22:30:23.949, 0.0316,-0.9613,-0.0425,-0.0745, 0.0210, 0.0817, 0.5882, 1.4071,-0.5487
04-May-2019 22:30:23.968, 0.0567,-0.9501,-0.0105,-0.0463, 0.0294, 0.1132, 0.5825, 1.4037,-0.5375
04-May-2019 22:30:23.988, 0.0733,-0.9555,-0.0062,-0.0240, 0.0371, 0.1363, 0.5802, 1.4004,-0.5290
04-May-2019 22:30:24.008, 0.0613,-0.9952,-0.0139,-0.0332,-0.0102, 0.1308, 0.5786, 1.3971,-0.5212
04-May-2019 22:30:24.027, 0.0329,-1.0341,-0.0357,-0.0464,-0.0311, 0.1231, 0.5784, 1.3950,-0.5164
04-May-2019 22:30:24.046, 0.0092,-1.0618,-0.0607,-0.0797,-0.0628, 0.0984, 0.5803, 1.3932,-0.5124
04-May-2019 22:30:24.066, 0.0092,-1.0657,-0.0665,-0.0887,-0.0825, 0.0833, 0.5863, 1.3930,-0.5128
04-May-2019 22:30:24.085, 0.0365,-1.0808,-0.0585,-0.0785,-0.0866, 0.0824, 0.5998, 1.3945,-0.5205
04-May-2019 22:30:24.105, 0.0458,-1.1225,-0.0095,-0.0575,-0.1114, 0.0991, 0.6180, 1.3972,-0.5342
04-May-2019 22:30:24.124, 0.0744,-1.1707, 0.0408,-0.0437,-0.1644, 0.1620, 0.6400, 1.4020,-0.5526
04-May-2019 22:30:24.143, 0.0886,-1.1915,-0.0042,-0.0140,-0.1957, 0.1560, 0.6611, 1.4080,-0.5692
04-May-2019 22:30:24.163, 0.0948,-1.1906,-0.1054,-0.0090,-0.2094, 0.0684, 0.6716, 1.4126,-0.5765
04-May-2019 22:30:24.183, 0.1068,-1.1550,-0.2412, 0.0072,-0.1898,-0.0534, 0.6758, 1.4164,-0.5793
04-May-2019 22:30:24.202, 0.0905,-1.0931,-0.3194, 0.0055,-0.1380,-0.1780, 0.6778, 1.4195,-0.5802
04-May-2019 22:30:24.222, 0.1252,-1.0228,-0.3136, 0.0075,-0.0686,-0.2092, 0.6736, 1.4234,-0.5725
04-May-2019 22:30:24.240, 0.2060,-0.9261,-0.2779, 0.0799, 0.0164,-0.1826, 0.6631, 1.4259,-0.5534
04-May-2019 22:30:24.260, 0.2183,-0.8548,-0.2362, 0.1388, 0.1088,-0.1470, 0.6515, 1.4282,-0.5304
04-May-2019 22:30:24.279, 0.1305,-0.8656,-0.1802, 0.1016, 0.1406,-0.0924, 0.6342, 1.4296,-0.5047
04-May-2019 22:30:24.299, 0.0327,-0.9471,-0.1611,-0.0038, 0.0922,-0.0452, 0.6110, 1.4279,-0.4778
04-May-2019 22:30:24.319, 0.0018,-1.0661,-0.2136,-0.0713,-0.0149,-0.0627, 0.5844, 1.4242,-0.4509
04-May-2019 22:30:24.338, 0.0345,-1.1483,-0.2462,-0.0716,-0.1326,-0.1098, 0.5570, 1.4190,-0.4252
04-May-2019 22:30:24.357, 0.1426,-1.0652,-0.2157, 0.0096,-0.1423,-0.1131, 0.5479, 1.4159,-0.4140
04-May-2019 22:30:24.377, 0.2003,-0.8836,-0.1509, 0.1033, 0.0152,-0.0488, 0.5541, 1.4160,-0.4163
04-May-2019 22:30:24.396, 0.1669,-0.7543,-0.1261, 0.1099, 0.1786,-0.0100, 0.5682, 1.4159,-0.4259
04-May-2019 22:30:24.416, 0.1089,-0.7143,-0.1049, 0.0503, 0.2664, 0.0208, 0.5724, 1.4130,-0.4284
04-May-2019 22:30:24.435, 0.0854,-0.7466,-0.1179, 0.0029, 0.2614, 0.0289, 0.5646, 1.4076,-0.4195
04-May-2019 22:30:24.455, 0.1190,-0.8150,-0.1325, 0.0093, 0.2076, 0.0179, 0.5500, 1.4013,-0.4023
04-May-2019 22:30:24.474, 0.1732,-0.8797,-0.1390, 0.0568, 0.1340, 0.0163, 0.5336, 1.3948,-0.3824
04-May-2019 22:30:24.494, 0.1922,-0.9222,-0.1458, 0.0969, 0.0808, 0.0142, 0.5188, 1.3884,-0.3649
04-May-2019 22:30:24.513, 0.1783,-0.9641,-0.1422, 0.0985, 0.0383, 0.0214, 0.5044, 1.3818,-0.3495
04-May-2019 22:30:24.533, 0.1284,-1.0030,-0.1309, 0.0651,-0.0025, 0.0353, 0.4898, 1.3755,-0.3349
04-May-2019 22:30:24.553, 0.0674,-1.0283,-0.0897,-0.0237,-0.0482, 0.0865, 0.4772, 1.3712,-0.3233
04-May-2019 22:30:24.572, 0.0331,-1.0259,-0.0570,-0.0465,-0.0525, 0.1074, 0.4683, 1.3693,-0.3159
04-May-2019 22:30:24.592, 0.0378,-1.0096,-0.0457,-0.0567,-0.0365, 0.1323, 0.4543, 1.3677,-0.3060
04-May-2019 22:30:24.610, 0.0720,-1.0085,-0.0525,-0.0342,-0.0253, 0.1362, 0.4389, 1.3666,-0.2970
04-May-2019 22:30:24.630, 0.1185,-1.0221,-0.0753, 0.0108,-0.0387, 0.1237, 0.4250, 1.3663,-0.2910
04-May-2019 22:30:24.649, 0.1473,-1.0364,-0.1081, 0.0535,-0.0521, 0.0914, 0.4129, 1.3665,-0.2871
04-May-2019 22:30:24.669, 0.1494,-1.0445,-0.1155, 0.0703,-0.0622, 0.0655, 0.4025, 1.3675,-0.2849
04-May-2019 22:30:24.688, 0.1676,-1.0388,-0.0839, 0.0783,-0.0634, 0.0799, 0.3984, 1.3714,-0.2876
04-May-2019 22:30:24.708, 0.1486,-1.0398,-0.0325, 0.0955,-0.0581, 0.1089, 0.4068, 1.3793,-0.3020
04-May-2019 22:30:24.727, 0.0704,-1.0596, 0.0267,-0.0030,-0.0758, 0.1904, 0.4220, 1.3904,-0.3270
04-May-2019 22:30:24.746, 0.0150,-1.0927,-0.0375,-0.0399,-0.0834, 0.1756, 0.4292, 1.3991,-0.3458
04-May-2019 22:30:24.766, 0.0772,-1.2131,-0.1971,-0.0330,-0.1627, 0.0333, 0.4295, 1.4079,-0.3649
04-May-2019 22:30:24.786, 0.1248,-1.2525,-0.3609, 0.0457,-0.2560,-0.1341, 0.4334, 1.4134,-0.3836
04-May-2019 22:30:24.805, 0.1146,-1.2245,-0.4811, 0.0619,-0.2587,-0.2932, 0.4534, 1.4169,-0.4101
04-May-2019 22:30:24.825, 0.0140,-1.1156,-0.4829,-0.0026,-0.1905,-0.3694, 0.4882, 1.4181,-0.4486
04-May-2019 22:30:24.844,-0.0533,-0.9908,-0.3577,-0.1031,-0.0645,-0.3014, 0.5369, 1.4198,-0.5033
04-May-2019 22:30:24.863,-0.0105,-0.8934,-0.2044,-0.1290, 0.0572,-0.1496, 0.5734, 1.4206,-0.5464
04-May-2019 22:30:24.883, 0.1125,-0.9314,-0.1761,-0.0408, 0.0906,-0.0413, 0.5822, 1.4197,-0.5578
04-May-2019 22:30:24.903, 0.1632,-1.0121,-0.2100, 0.0724, 0.0127,-0.0783, 0.5761, 1.4194,-0.5530
04-May-2019 22:30:24.922, 0.1474,-1.0447,-0.1861, 0.0749,-0.0444,-0.0682, 0.5734, 1.4198,-0.5512
04-May-2019 22:30:24.941, 0.1078,-1.0410,-0.2010, 0.0501,-0.0630,-0.0656, 0.5733, 1.4196,-0.5492
04-May-2019 22:30:24.960, 0.0433,-0.9692,-0.2035,-0.0080,-0.0236,-0.0775, 0.5753, 1.4201,-0.5467
04-May-2019 22:30:24.980, 0.0148,-0.8655,-0.1638,-0.0549, 0.0707,-0.0671, 0.5780, 1.4233,-0.5439
04-May-2019 22:30:24.999, 0.0177,-0.7806,-0.1051,-0.0624, 0.1754,-0.0077, 0.5783, 1.4263,-0.5381
04-May-2019 22:30:25.019, 0.0131,-0.7467,-0.1003,-0.0603, 0.2334, 0.0243, 0.5725, 1.4271,-0.5259
04-May-2019 22:30:25.038,-0.0064,-0.7739,-0.1166,-0.0697, 0.2368, 0.0171, 0.5589, 1.4256,-0.5064
04-May-2019 22:30:25.058,-0.0497,-0.8307,-0.1236,-0.1056, 0.1852, 0.0077, 0.5392, 1.4226,-0.4814
04-May-2019 22:30:25.077,-0.0588,-0.8839,-0.1358,-0.1332, 0.1263, 0.0015, 0.5174, 1.4188,-0.4543
04-May-2019 22:30:25.097,-0.0616,-0.9243,-0.1337,-0.1360, 0.0823,-0.0042, 0.5020, 1.4155,-0.4357
04-May-2019 22:30:25.116,-0.0566,-0.9425,-0.1199,-0.1375, 0.0512, 0.0124, 0.4845, 1.4111,-0.4152
04-May-2019 22:30:25.136,-0.0170,-0.9454,-0.0941,-0.1178, 0.0432, 0.0345, 0.4734, 1.4070,-0.4018
04-May-2019 22:30:25.156, 0.0200,-0.9580,-0.0762,-0.0680, 0.0337, 0.0642, 0.4688, 1.4033,-0.3949
04-May-2019 22:30:25.175, 0.0423,-0.9715,-0.0460,-0.0431, 0.0217, 0.0967, 0.4686, 1.3999,-0.3920
04-May-2019 22:30:25.194, 0.0421,-0.9865,-0.0343,-0.0339, 0.0079, 0.1138, 0.4734, 1.3971,-0.3935
04-May-2019 22:30:25.214, 0.0334,-1.0045,-0.0193,-0.0404,-0.0088, 0.1271, 0.4805, 1.3946,-0.3971
04-May-2019 22:30:25.233, 0.0192,-1.0354,-0.0226,-0.0582,-0.0371, 0.1399, 0.4882, 1.3924,-0.4011
04-May-2019 22:30:25.253, 0.0047,-1.0481,-0.0542,-0.0757,-0.0591, 0.1211, 0.4977, 1.3916,-0.4068
04-May-2019 22:30:25.272,-0.0027,-1.0514,-0.0744,-0.0891,-0.0672, 0.0804, 0.5091, 1.3926,-0.4142
04-May-2019 22:30:25.291, 0.0146,-1.0549,-0.0782,-0.0795,-0.0687, 0.0747, 0.5199, 1.3938,-0.4217
04-May-2019 22:30:25.311, 0.0248,-1.0661,-0.0381,-0.0646,-0.0783, 0.0792, 0.5382, 1.3962,-0.4363
04-May-2019 22:30:25.330, 0.0411,-1.0976, 0.0768,-0.0640,-0.0940, 0.1619, 0.5631, 1.4003,-0.4589
04-May-2019 22:30:25.350, 0.0991,-1.1128, 0.1263,-0.0254,-0.1199, 0.2566, 0.6001, 1.4077,-0.4911
04-May-2019 22:30:25.369, 0.1032,-1.1232, 0.0168, 0.0225,-0.1257, 0.2102, 0.6401, 1.4157,-0.5241
04-May-2019 22:30:25.389, 0.0474,-1.1485,-0.1245,-0.0172,-0.1493, 0.0522, 0.6709, 1.4220,-0.5500
04-May-2019 22:30:25.408, 0.0423,-1.1315,-0.2440,-0.0536,-0.1542,-0.0786, 0.7018, 1.4279,-0.5785
04-May-2019 22:30:25.428, 0.0499,-1.0866,-0.3719,-0.0428,-0.1162,-0.1996, 0.7183, 1.4318,-0.5930
04-May-2019 22:30:25.447, 0.0975,-1.0641,-0.4173, 0.0080,-0.0738,-0.3112, 0.7011, 1.4315,-0.5725
04-May-2019 22:30:25.467, 0.2166,-1.0007,-0.3199, 0.0733,-0.0517,-0.2712, 0.6847, 1.4318,-0.5512
04-May-2019 22:30:25.486, 0.2718,-0.9453,-0.2110, 0.1759, 0.0261,-0.1532, 0.6727, 1.4351,-0.5291
04-May-2019 22:30:25.505, 0.1500,-0.9429,-0.1486, 0.1471, 0.0524,-0.0702, 0.6611, 1.4374,-0.5090
04-May-2019 22:30:25.525, 0.0119,-0.9925,-0.1594,-0.0094, 0.0308,-0.0343, 0.6532, 1.4363,-0.4964
04-May-2019 22:30:25.544,-0.0231,-1.0984,-0.2346,-0.0939,-0.0493,-0.0847, 0.6511, 1.4337,-0.4912
04-May-2019 22:30:25.564, 0.0104,-1.1485,-0.2499,-0.0916,-0.1509,-0.1526, 0.6494, 1.4312,-0.4901
04-May-2019 22:30:25.583, 0.0699,-1.0252,-0.1507,-0.0525,-0.1139,-0.0929, 0.6587, 1.4302,-0.4996
04-May-2019 22:30:25.603, 0.1176,-0.8393,-0.1089, 0.0138, 0.0636,-0.0070, 0.6823, 1.4304,-0.5209
04-May-2019 22:30:25.622, 0.1151,-0.7268,-0.1276, 0.0310, 0.2223,-0.0111, 0.7020, 1.4295,-0.5387
04-May-2019 22:30:25.642, 0.1080,-0.7163,-0.1456, 0.0149, 0.2733,-0.0359, 0.7039, 1.4264,-0.5409
04-May-2019 22:30:25.661, 0.1495,-0.7824,-0.1372, 0.0286, 0.2445,-0.0327, 0.6975, 1.4234,-0.5355
04-May-2019 22:30:25.681, 0.2035,-0.8545,-0.1204, 0.0865, 0.1679,-0.0130, 0.6859, 1.4193,-0.5248
04-May-2019 22:30:25.700, 0.2123,-0.8924,-0.1176, 0.1138, 0.1092, 0.0063, 0.6741, 1.4149,-0.5128
04-May-2019 22:30:25.719, 0.1974,-0.8931,-0.1225, 0.1092, 0.0942, 0.0057, 0.6639, 1.4108,-0.5019
04-May-2019 22:30:25.739, 0.1486,-0.9153,-0.0992, 0.0771, 0.0862, 0.0179, 0.6516, 1.4066,-0.4908
04-May-2019 22:30:25.758, 0.0934,-0.9691,-0.0820, 0.0216, 0.0477, 0.0466, 0.6369, 1.4026,-0.4781
04-May-2019 22:30:25.778, 0.0535,-1.0145,-0.0526,-0.0302,-0.0079, 0.0627, 0.6217, 1.3997,-0.4653
04-May-2019 22:30:25.798, 0.0462,-1.0292,-0.0092,-0.0521,-0.0407, 0.1101, 0.6070, 1.3987,-0.4536
04-May-2019 22:30:25.817, 0.0537,-1.0071, 0.0220,-0.0421,-0.0219, 0.1639, 0.5938, 1.3988,-0.4449
04-May-2019 22:30:25.836, 0.0839,-0.9803, 0.0229,-0.0281,-0.0090, 0.1696, 0.5843, 1.3994,-0.4403
04-May-2019 22:30:25.856, 0.1157,-0.9641,-0.0074, 0.0097, 0.0176, 0.1519, 0.5739, 1.4012,-0.4372
04-May-2019 22:30:25.875, 0.1253,-0.9736,-0.0509, 0.0370, 0.0217, 0.1105, 0.5647, 1.4034,-0.4355
04-May-2019 22:30:25.895, 0.1113,-1.0001,-0.0760, 0.0319, 0.0005, 0.0701, 0.5541, 1.4057,-0.4331
04-May-2019 22:30:25.914, 0.1338,-1.0356,-0.0620, 0.0328,-0.0323, 0.0632, 0.5448, 1.4087,-0.4317
04-May-2019 22:30:25.933, 0.1722,-1.0664,-0.0170, 0.0786,-0.0614, 0.0897, 0.5432, 1.4129,-0.4350
04-May-2019 22:30:25.953, 0.1197,-1.1227, 0.0277, 0.0762,-0.1058, 0.1347, 0.5511, 1.4180,-0.4479
04-May-2019 22:30:25.972, 0.0499,-1.1623, 0.0316, 0.0038,-0.1524, 0.1624, 0.5614, 1.4236,-0.4675
04-May-2019 22:30:25.992, 0.0500,-1.2311,-0.0644,-0.0262,-0.2412, 0.0558, 0.5653, 1.4280,-0.4831
04-May-2019 22:30:26.011, 0.1249,-1.2470,-0.1206, 0.0063,-0.2594, 0.0305, 0.5665, 1.4308,-0.4919
04-May-2019 22:30:26.031, 0.1913,-1.2114,-0.2566, 0.0959,-0.2463,-0.0659, 0.5813, 1.4344,-0.5105
04-May-2019 22:30:26.050, 0.0876,-1.1372,-0.4277, 0.0843,-0.1877,-0.2398, 0.6001, 1.4350,-0.5322
04-May-2019 22:30:26.070,-0.0486,-1.0555,-0.4014,-0.0722,-0.1082,-0.3331, 0.6215, 1.4341,-0.5628
04-May-2019 22:30:26.089,-0.0705,-0.9530,-0.2776,-0.1619,-0.0097,-0.2281, 0.6433, 1.4327,-0.5932
04-May-2019 22:30:26.109, 0.0442,-0.9124,-0.1588,-0.1084, 0.0717,-0.1013, 0.6518, 1.4297,-0.6047
